,Accelerometer.xlsx_x,Accelerometer.xlsx_y,Accelerometer.xlsx_z,Gravity_x,Gravity_y,Gravity_z,Gyroscope_x,Gyroscope_y,Gyroscope_z,seconds_elapsed,time,Real Time,Label_2
2,0.5575986587939505,-2.8009175384646645,0.3401369085704926,-1.493534525337747,9.667788019216436,-0.689534231030213,-0.100185632705689,0.291874974966049,-0.294971287250519,146.087009765625,1632193891370010112,2021/09/21 11:11:31.184,2.0
3,0.29416256759731924,-3.112109837503321,0.5456552590472702,-1.499870172220528,9.667765370499207,-0.6766625219460117,-0.100185632705689,0.193525761365891,-0.220445811748505,146.106844238281,1632193891389839872,2021/09/21 11:11:31.203,2.0
4,0.07417638910335808,-3.3051583572545353,0.7216785989082607,-1.5061421638425105,9.667742552492644,-0.6638330455859747,-0.113624662160873,0.159317329525947,-0.134924739599228,146.126678710938,1632193891409679872,2021/09/21 11:11:31.223,2.0
5,-0.09548747321093162,-3.353319270334852,0.8598233940106895,-1.5123349042878598,9.66771937560595,-0.6510749159392157,-0.111181199550629,0.05608119815588,-0.0402407124638557,146.146512939453,1632193891429509888,2021/09/21 11:11:31.243,2.0
6,-0.21696300096883261,-3.237497894056886,0.9603221412242285,-1.5184336472245519,9.667695420230926,-0.6384183982254343,-0.100185632705689,-0.0886937379837036,0.0165697056800127,146.166347412109,1632193891449349888,2021/09/21 11:11:31.263,2.0
7,-0.30014023189194317,-2.9445361544688082,1.0317400489711912,-1.5244245508886645,9.667670033283468,-0.6258948460709036,-0.0855248793959618,-0.195595070719719,0.0733801275491714,146.186181640625,1632193891469179904,2021/09/21 11:11:31.283,2.0
8,-0.3572286270375711,-2.467017356807474,1.0842967055976773,-1.530294656806816,9.667642339145177,-0.613536617367809,-0.111181199550629,-0.206590637564659,0.137520924210548,146.206016113281,1632193891489019904,2021/09/21 11:11:31.303,2.0
9,-0.39721588628343474,-1.8096245785288823,1.1231493585260688,-1.5360317983033114,9.667611262881973,-0.6013769820645888,-0.111181199550629,-0.206590637564659,0.199218258261681,146.225850341797,1632193891508849920,2021/09/21 11:11:31.322,2.0
10,-0.42453728986716704,-1.0001528194106453,1.146986595182455,-1.5416244415712232,9.667575564494193,-0.589450027746895,-0.164326429367066,-0.206590637564659,0.199218258261681,146.245685058594,1632193891528689920,2021/09/21 11:11:31.342,2.0
11,-0.44124509749856294,-0.09594755778477322,1.1505544012399027,-1.5470614655107904,9.667533884990208,-0.5777905304731203,-0.30360358953476,-0.166273564100266,0.199218258261681,146.26551953125,1632193891548519936,2021/09/21 11:11:31.362,2.0
12,-0.4482466127595176,0.8208602056402629,1.1257339132167323,-1.5523319066319776,9.667484802923028,-0.5664337362383705,-0.30360358953476,-0.142449840903282,0.0819322317838669,146.285353759766,1632193891568349952,2021/09/21 11:11:31.382,2.0
13,-0.4429004593111375,1.6585838528855956,1.0581395970260024,-1.5574247362797884,9.667426890867064,-0.5554150298404456,-0.30360358953476,-0.142449840903282,0.0819322317838669,146.305188232422,1632193891588189952,2021/09/21 11:11:31.402,2.0
14,-0.41665882348345545,2.337045325499833,0.9234053998282851,-1.5623287437514122,9.667358756458258,-0.5447695334487276,-0.245571449398994,-0.142449840903282,0.0819322317838669,146.325022460938,1632193891608019968,2021/09/21 11:11:31.422,2.0
15,-0.36001840368092647,2.8056374625359117,0.6928586869037598,-1.5670325096336977,9.667279065177025,-0.5345317278678441,-0.245571449398994,-0.194984212517738,0.150959938764572,146.344856933594,1632193891627859968,2021/09/21 11:11:31.441,2.0
16,-0.2736403112075735,3.0499844770908284,0.35064671780859946,-1.5715243536896473,9.667186560530943,-0.5247351581387641,-0.245571449398994,-0.292111694812775,0.304286986589432,146.364691162109,1632193891647689984,2021/09/21 11:11:31.461,2.0
17,-0.173793844213511,3.0893527956140074,-0.09119619204669763,-1.5757921489055953,9.667080100806832,-0.5154121743481295,-0.292608022689819,-0.292111694812775,0.304286986589432,146.384525634766,1632193891667529984,2021/09/21 11:11:31.481,2.0
18,-0.08400847502108813,2.968624817156271,-0.5906786472665813,-1.5798229740305927,9.666958719173861,-0.5065936182821341,-0.29871666431427,-0.292111694812775,0.304286986589432,146.404360351563,1632193891687360000,2021/09/21 11:11:31.501,2.0
19,-0.01916746619978172,2.7407066841143823,-1.0835432239599645,-1.5836026614141476,9.666821697121499,-0.4983084517626252,-0.353083610534668,-0.264622777700424,0.238924458622932,146.424194580078,1632193891707190016,2021/09/21 11:11:31.521,2.0
20,0.023346620383769306,2.443886286560965,-1.4979785874896354,-1.5871153626418213,9.666668631052232,-0.490583376674626,-0.353083610534668,0.28698804974556,0.0019089519046247,146.444029052734,1632193891727030016,2021/09/21 11:11:31.541,2.0
21,0.058397840893898816,2.0919541763270213,-1.774117899304136,-1.5903432632838013,9.666499474079842,-0.48344246605617597,-0.353083610534668,0.28698804974556,-0.133703008294106,146.46386328125,1632193891746860032,2021/09/21 11:11:31.560,2.0
22,0.10036257768722241,1.6826496681803742,-1.8782132840670853,-1.5932665082783237,9.666314546688834,-0.4769068312761088,-0.130117997527122,0.28698804974556,-0.178907006978989,146.483697753906,1632193891766700032,2021/09/21 11:11:31.580,2.0
23,0.15441373094681102,1.2107059317405897,-1.805518492622556,-1.595863299498165,9.666114522963564,-0.47099442380369877,0.219296619296074,0.205743044614792,-0.178907006978989,146.503531982422,1632193891786530048,2021/09/21 11:11:31.600,2.0
24,0.21904256550623255,0.6744498766730365,-1.577640501650583,-1.5981100775104193,9.665900404754185,-0.46572008974749457,0.242509484291077,0.205743044614792,-0.178907006978989,146.523366455078,1632193891806370048,2021/09/21 11:11:31.620,2.0
25,0.29598630573363716,0.07791472578007244,-1.2419685454938003,-1.599981719904684,9.66567349235597,-0.4610958827278291,0.295654714107513,0.205743044614792,-0.163635388016701,146.543201171875,1632193891826200064,2021/09/21 11:11:31.640,2.0
26,0.39460240958359655,-0.5655850723948148,-0.8698017937037082,-1.6014517294988182,9.66543535409376,-0.4571315190916239,0.295654714107513,0.205743044614792,-0.163635388016701,146.563035400391,1632193891846030080,2021/09/21 11:11:31.660,2.0
27,0.5245079062770942,-1.2277906091422826,-0.5399343717991624,-1.6024924101506242,9.665187793963208,-0.4538348770978543,0.242509484291077,0.205743044614792,-0.163635388016701,146.582869873047,1632193891865870080,2021/09/21 11:11:31.679,2.0
28,0.6851288412748023,-1.8638791365979195,-0.3082685094596587,-1.6030750406276868,9.664932816163493,-0.4512124909964673,0.0690238922834396,0.193525761365891,-0.225332722067833,146.602704101562,1632193891885700096,2021/09/21 11:11:31.699,2.0
29,0.8634730649290688,-2.419963028774435,-0.18692122012337214,-1.6031700717694266,9.664672586392014,-0.44926993827257394,-0.0164971649646759,0.193525761365891,-0.263817191123962,146.622538574219,1632193891905540096,2021/09/21 11:11:31.719,2.0
30,1.040492818206978,-2.846020148526574,-0.14814809185093106,-1.602747371052884,9.664409390256305,-0.44801202363317194,-0.0641446188092232,0.193525761365891,-0.269314974546432,146.642373046875,1632193891925370112,2021/09/21 11:11:31.739,2.0
31,1.1983489189094712,-3.106639781860779,-0.14367022622144018,-1.601776508664243,9.664145588830545,-0.44744281219953747,-0.0641446188092232,0.31386610865593,-0.269314974546432,146.662207275391,1632193891945210112,2021/09/21 11:11:31.759,2.0
32,1.3241307715440769,-3.1862953130534777,-0.12671597803620682,-1.6002270596211547,9.663883571575674,-0.4475656337160239,-0.0305470526218414,0.405495822429657,-0.263817191123962,146.682041748047,1632193891965040128,2021/09/21 11:11:31.779,2.0
33,1.4105236260317164,-3.0890734778172657,-0.06970009951653611,-1.5980689033539919,9.66362570806026,-0.44838310530813996,-0.0305470526218414,0.405495822429657,-0.224721863865852,146.701876220703,1632193891984880128,2021/09/21 11:11:31.798,2.0
34,1.454463774675586,-2.8332919980815903,0.029799006002545952,-1.5952725030295198,9.663374301538372,-0.4498971769208952,0.0397023893892765,0.405495822429657,-0.170965760946274,146.721710693359,1632193892004709888,2021/09/21 11:11:31.818,2.0
35,1.455179896186869,-2.4433931614332587,0.15545455796598784,-1.5918091411329944,9.663131548282776,-0.4521092141710442,0.0452001728117466,0.401830613613129,-0.117820531129837,146.741544921875,1632193892024549888,2021/09/21 11:11:31.838,2.0
36,1.4131131286990584,-1.942933383156849,0.28277141680606915,-1.5876510936633879,9.662899506373874,-0.45502011459867947,0.0488653592765331,0.329137712717056,-0.0414624437689781,146.761379394531,1632193892044379904,2021/09/21 11:11:31.858,2.0
37,1.3298578539047605,-1.3515614514694627,0.3873957832818164,-1.5827717334469606,9.662680077172364,-0.45863042824853073,0.0488653592765331,0.249114453792572,0.0281761363148689,146.781213867187,1632193892064209920,2021/09/21 11:11:31.878,2.0
38,1.208862023005458,-0.6870851122668928,0.4506341831441177,-1.5771455594890254,9.662475001091366,-0.4629404631149317,0.0488653592765331,0.137326195836067,0.0281761363148689,146.801048095703,1632193892084049920,2021/09/21 11:11:31.898,2.0
39,1.0567001955189903,0.028376030062985336,0.4624486963733659,-1.5707481663383547,9.662285865520536,-0.4679503696756918,0.0268742293119431,0.137326195836067,0.0281761363148689,146.820882568359,1632193892103879936,2021/09/21 11:11:31.917,2.0
40,0.8835017744529275,0.7617603019597772,0.4205570185361045,-1.5635561884517368,9.66211411942129,-0.4736601868027135,-0.0830814242362976,0.087235301733017,0.0184023007750511,146.840717041016,1632193892123719936,2021/09/21 11:11:31.937,2.0
41,0.7005080876355466,1.4674072401013385,0.325866484287265,-1.5555472607905916,9.661961088722792,-0.4800698158641765,-0.0830814242362976,0.0554703325033188,-0.0408515781164169,146.860551513672,1632193892143549952,2021/09/21 11:11:31.957,2.0
42,0.5152192225781381,2.093424758776064,0.17845409575227617,-1.5467000294116497,9.661827987188527,-0.4871789077550256,-0.0830814242362976,0.0554703325033188,-0.114766210317612,146.880385742188,1632193892163389952,2021/09/21 11:11:31.977,2.0
43,0.3273827352958721,2.592475703891032,-0.021170774477463454,-1.5369942355235509,9.661715916984575,-0.4949866962981158,-0.0555925071239471,-0.140006378293037,-0.145920306444168,146.900220214844,1632193892183219968,2021/09/21 11:11:31.997,2.0
44,0.12867035210506253,2.929715125867595,-0.26612097347337965,-1.5264108798493716,9.6616258548202,-0.5034918406037812,-0.0555925071239471,-0.236523002386093,-0.145920306444168,146.9200546875,1632193892203059968,2021/09/21 11:11:32.017,2.0
45,-0.09294849111326219,3.0852972600202953,-0.538398394428458,-1.5149324461804032,9.661558626091377,-0.5126923044237831,-0.0555925071239471,-0.236523002386093,-0.145920306444168,146.939888916016,1632193892222889984,2021/09/21 11:11:32.036,2.0
46,-0.34516882377355596,3.055550253204781,-0.809697196939649,-1.5025431398630573,9.661514876496431,-0.5225852353204596,-0.133172318339348,-0.236523002386093,-0.091553345322609,146.959723388672,1632193892242720000,2021/09/21 11:11:32.056,2.0
47,-0.623018240172733,2.855443941157544,-1.0467502257867518,-1.4892291004558014,9.661495050606833,-0.5331667941008192,-0.133172318339348,-0.0612048283219338,-0.0683404877781868,146.979557861328,1632193892262560000,2021/09/21 11:11:32.076,2.0
48,-0.9043235186580687,2.5185681182367796,-1.2186867792807186,-1.4749785775352733,9.661499379507257,-0.544431933999302,-0.133172318339348,0.118389405310154,-0.0646753013134003,146.999392333984,1632193892282390016,2021/09/21 11:11:32.096,2.0
49,-1.1516283839942187,2.0906206417608844,-1.3049102179729746,-1.4597820881904855,9.661527872535366,-0.5563741722021538,-0.108737744390964,0.118389405310154,-0.042073305696249,147.019226806641,1632193892302230016,2021/09/21 11:11:32.116,2.0
50,-1.3199356283947434,1.6172647308772836,-1.2999514249614401,-1.443632576474921,9.661580307540433,-0.5689854117260522,-0.108737744390964,0.150765225291252,-0.000534506980329752,147.039061035156,1632193892322060032,2021/09/21 11:11:32.136,2.0
51,-1.3674128379138948,1.1302945276909602,-1.211931168482941,-1.4265255731106683,9.661656218877386,-0.5822558574178549,-0.0989639088511467,0.259499132633209,0.0477238073945045,147.058895507813,1632193892341890048,2021/09/21 11:11:32.155,2.0
52,-1.2679942915928484,0.6388767853003666,-1.0579782921368042,-1.4084593383260147,9.661754887356166,-0.5961740014467204,0.0146569358184934,0.340133279561997,0.0477238073945045,147.078729736328,1632193892361730048,2021/09/21 11:11:32.175,2.0
53,-1.024087576851393,0.1330227300861949,-0.8606551148075974,-1.3894349812011093,9.661875335970938,-0.610726597966442,0.0146569358184934,0.340133279561997,0.0477238073945045,147.098564208984,1632193892381560064,2021/09/21 11:11:32.195,2.0
54,-0.6721239991964877,-0.40109132958338256,-0.6431101041702108,-1.3694565691976648,9.662016329580519,-0.625898600400502,0.0879606977105141,0.344409346580505,0.00985019281506538,147.118398681641,1632193892401400064,2021/09/21 11:11:32.215,2.0
55,-0.2744326692451451,-0.963315925149173,-0.4223028701668283,-1.348531244171746,9.662176372871931,-0.6416731341908376,0.261446297168732,0.425654351711273,0.00985019281506538,147.138233154297,1632193892421230080,2021/09/21 11:11:32.235,2.0
56,0.09977179795402666,-1.5305691081947745,-0.2057646540490618,-1.326669348608979,9.662353702126245,-0.6580315985006495,0.261446297168732,0.425654351711273,0.00985019281506538,147.158067626953,1632193892441070080,2021/09/21 11:11:32.255,2.0
57,0.3938701061756767,-2.0617540990487746,0.004997872114139702,-1.3038845493686746,9.662546270790918,-0.6749539273531584,0.261446297168732,0.578370571136475,0.0379499718546867,147.177901855469,1632193892460900096,2021/09/21 11:11:32.274,2.0
58,0.5752178527248338,-2.5116327685822224,0.20848630179711558,-1.2801939291234619,9.662751735240784,-0.6924189554880513,0.169816583395004,0.633348405361176,0.0917060673236847,147.197736328125,1632193892480740096,2021/09/21 11:11:32.294,2.0
59,0.6380610878591841,-2.8443542628038396,0.4000039266187834,-1.255618018665725,9.66296745081402,-0.7104047698396958,-0.0445969440042973,0.674276292324066,0.113086335361004,147.217570556641,1632193892500570112,2021/09/21 11:11:32.314,2.0
60,0.6006554947667656,-3.0409099096911354,0.5727492411945656,-1.230180773951605,9.663190484590737,-0.7288889251620398,-0.0445969440042973,0.726810693740845,0.125303626060486,147.237405029297,1632193892520399872,2021/09/21 11:11:32.334,2.0
61,0.49622234481420946,-3.099876899965424,0.7216319722509572,-1.203909526134658,9.663417643189941,-0.7478484835855645,-0.0445969440042973,0.726810693740845,0.149738222360611,147.257239501953,1632193892540239872,2021/09/21 11:11:32.354,2.0
62,0.35938049656582205,-3.0328069866109297,0.8463027498929055,-1.1768349242545397,9.663645508661098,-0.7672599429330214,-0.0336013771593571,0.726810693740845,0.168064162135124,147.277073974609,1632193892560069888,2021/09/21 11:11:32.374,2.0
63,0.21553932603701975,-2.8563748884071827,0.9498762900153547,-1.14899086662735,9.663870476626236,-0.7870991568393144,0.0488653592765331,0.722534656524658,0.168064162135124,147.296908447266,1632193892579909888,2021/09/21 11:11:32.394,2.0
64,0.07890553324465785,-2.584667757894225,1.0342339905293232,-1.1204144150887385,9.664088792844561,-0.8073413160637621,0.142327666282654,0.640067875385284,0.180281445384026,147.316742675781,1632193892599739904,2021/09/21 11:11:32.413,2.0
65,-0.04338532633107858,-2.2246202632128336,1.0964742851436893,-1.0911457059092813,9.66429658395155,-0.8279610108092689,0.142327666282654,0.530723094940186,0.180281445384026,147.336577148437,1632193892619579904,2021/09/21 11:11:32.433,2.0
66,-0.14696098375281658,-1.7763497355118258,1.1294027618937004,-1.0612278753268607,9.664489880288924,-0.8489323526959534,0.142327666282654,0.439093381166458,0.180281445384026,147.356411376953,1632193892639409920,2021/09/21 11:11:32.453,2.0
67,-0.2284850981229725,-1.2391487707374012,1.1249452785630751,-1.030706996834437,9.66466463479665,-0.8702291054039496,0.0849063768982887,0.370065659284592,0.231594085693359,147.376245849609,1632193892659249920,2021/09/21 11:11:32.473,2.0
68,-0.2859576832168357,-0.6210708428418178,1.0772593520538578,-0.9996320037840473,9.664816746582558,-0.8918247680137785,0.047643631696701,0.327915996313095,0.334219366312027,147.396080566406,1632193892679079936,2021/09/21 11:11:32.493,2.0
69,-0.32003212730526603,0.05336489506471899,0.9837176071691617,-0.9680545551103349,9.664942098167586,-0.913692579219921,0.047643631696701,0.327915996313095,0.463722676038742,147.415914794922,1632193892698919936,2021/09/21 11:11:32.513,2.0
70,-0.33500272994789565,0.742520654164712,0.8440069312332283,-0.936028799458321,9.665036611159879,-0.9358054540301103,0.047643631696701,0.327915996313095,0.543745934963226,147.435749267578,1632193892718749952,2021/09/21 11:11:32.532,2.0
71,-0.3372920914518808,1.3941339246459414,0.6573452398801003,-0.9036110165332437,9.665096317106931,-0.9581359023067363,0.082462914288044,0.327915996313095,0.560850203037262,147.455583496094,1632193892738579968,2021/09/21 11:11:32.552,2.0
72,-0.331409525556122,1.9545570891643123,0.4186674919730813,-0.8708591533820037,9.665117434134883,-0.9806559768714525,0.0940693467855454,0.327915996313095,0.612162828445435,147.47541796875,1632193892758419968,2021/09/21 11:11:32.572,2.0
73,-0.317176797962552,2.377910726393408,0.1183706681330385,-0.8378322871094326,9.66509644188572,-1.0033372558548987,0.0983453989028931,-0.0532635822892189,0.725172758102417,147.495252197266,1632193892778249984,2021/09/21 11:11:32.592,2.0
74,-0.2917163526886091,2.6365518458276593,-0.2497538594048386,-0.8045900240843317,9.66503015403667,-1.026150821801496,0.109340965747833,-0.0532635822892189,0.725172758102417,147.515086914062,1632193892798089984,2021/09/21 11:11:32.612,2.0
75,-0.25458326061134506,2.733188139039974,-0.6742205906096012,-0.7711918328564995,9.66491578833461,-1.0490672139795654,0.199138090014458,-0.0532635822892189,0.725172758102417,147.534921386719,1632193892817920000,2021/09/21 11:11:32.632,2.0
76,-0.20925215403890352,2.7065555435141984,-1.1142347476829892,-0.7376963370180439,9.664751025491945,-1.0720564027175041,0.199138090014458,0.14404571056366,0.617660582065582,147.554755615234,1632193892837760000,2021/09/21 11:11:32.651,2.0
77,-0.1570714359694663,2.6174986187952523,-1.502806288191664,-0.7041606363537152,9.664534043933877,-1.0950878643442983,0.199138090014458,0.259499132633209,0.489378988742828,147.574590087891,1632193892857590016,2021/09/21 11:11:32.671,2.0
78,-0.09087377211856063,2.5146885895581677,-1.7683392553200126,-0.670639731046203,9.664263528461623,-1.1181307475613254,0.0140460720285773,0.437260776758194,0.435622900724411,147.594424316406,1632193892877420032,2021/09/21 11:11:32.691,2.0
79,0.0023765182406917406,2.401077709678705,-1.8606720336185758,-0.6371860840176093,9.66393866705249,-1.1411540107807525,-0.199145719408989,0.665724217891693,0.435622900724411,147.614258789062,1632193892897260032,2021/09/21 11:11:32.711,2.0
80,0.13133438639570844,2.2272397842043214,-1.7650345491861972,-0.6038492864601797,9.663559155561266,-1.164126391382257,-0.199145719408989,0.665724217891693,0.435622900724411,147.634093261719,1632193892917090048,2021/09/21 11:11:32.731,2.0
81,0.2906987130908969,1.9181496529090956,-1.5044832408985118,-0.5706757269280452,9.66312522138385,-1.1870161453406378,-0.199145719408989,0.665724217891693,0.435622900724411,147.653927734375,1632193892936930048,2021/09/21 11:11:32.751,2.0
82,0.45884974543310736,1.4155713335502382,-1.1353955011615886,-0.5377081639213125,9.662637655151096,-1.2097906663404163,0.390949606895447,0.346241921186447,0.435622900724411,147.673762207031,1632193892956760064,2021/09/21 11:11:32.770,2.0
83,0.6059751926250291,0.7102114244058881,-0.7307198618568489,-0.5049852023836023,9.662097815978703,-1.2324162892340578,0.621856451034546,0.318753033876419,0.273743748664856,147.693596435547,1632193892976600064,2021/09/21 11:11:32.790,2.0
84,0.7117364629524267,-0.15013368706423413,-0.35458062242728483,-0.4725408250720898,9.661507578814994,-1.2548585572495996,0.621856451034546,0.247281849384308,-0.103770643472671,147.713430908203,1632193892996430080,2021/09/21 11:11:32.810,2.0
85,0.7820584120867743,-1.072924526784174,-0.046512001047998186,-0.4404041819617655,9.660869228674564,-1.2770829123153113,0.621856451034546,0.247281849384308,-0.292527854442596,147.733265136719,1632193893016260096,2021/09/21 11:11:32.830,2.0
86,0.8487421635289296,-1.94400184023355,0.17785483140027503,-0.4085997296526723,9.660185341422746,-1.2990554807578323,0.268776655197144,0.318753033876419,-0.345673084259033,147.753099609375,1632193893036100096,2021/09/21 11:11:32.850,2.0
87,0.9497687280653706,-2.653290612864917,0.3199106042065372,-0.377147660642033,9.659458691091682,-1.3207436520246896,0.268776655197144,0.343187600374222,-0.345673084259033,147.772934326172,1632193893055930112,2021/09/21 11:11:32.870,2.0
88,1.1076744095100974,-3.116456328710253,0.39307480445042137,-0.3460644806469002,9.658692193342867,-1.3421163885178093,0.260224550962448,0.395111113786697,-0.345673084259033,147.792768554688,1632193893075770112,2021/09/21 11:11:32.889,2.0
89,1.3211885426222472,-3.28902294754274,0.4185815067552173,-0.31536359639991995,9.657888865687994,-1.3631443986092384,0.239455163478851,0.407328397035599,-0.303523421287537,147.812603027344,1632193893095600128,2021/09/21 11:11:32.909,2.0
90,1.5687272799085148,-3.171986011148181,0.41809706055985035,-0.28505583862364037,9.657051783505358,-1.3838003099868903,0.239455163478851,0.414047926664352,-0.199065536260605,147.832437255859,1632193893115440128,2021/09/21 11:11:32.929,2.0
91,1.814705875520234,-2.808521986292713,0.40419074762715357,-0.25514989091374385,9.656184028080435,-1.404058873035394,0.217464029788971,0.414047926664352,-0.199065536260605,147.852271728516,1632193893135269888,2021/09/21 11:11:32.949,2.0
92,2.015111244012113,-2.272421153962132,0.3750342524205274,-0.22565260456848032,9.655288633627475,-1.423897159031006,0.204635873436928,0.566764116287231,-0.199065536260605,147.872105957031,1632193893155109888,2021/09/21 11:11:32.969,2.0
93,2.124606637063985,-1.6496839397156824,0.3170460836290914,-0.19656920859890825,9.654368538892408,-1.4432947261053912,0.18936425447464,0.739027976989746,-0.213726297020912,147.891940673828,1632193893174939904,2021/09/21 11:11:32.989,2.0
94,2.1068207590407657,-1.0165758931978988,0.2130802273840437,-0.16790347563716881,9.65342654550112,-1.46223374534537,0.155155822634697,0.77262556552887,-0.347505658864975,147.911775146484,1632193893194779904,2021/09/21 11:11:33.008,2.0
95,1.9455483999265093,-0.4217606293370375,0.05119914894065965,-0.13965792508618463,9.652465284517366,-1.4806990823677282,0.0885715633630753,0.870363891124725,-0.438524514436722,147.931609375,1632193893214609920,2021/09/21 11:11:33.028,2.0
96,1.6510017791244465,0.11799029592487481,-0.16988133341016204,-0.11183411387624112,9.651487193345364,-1.4986783250388567,-0.0018364111892879,0.973600029945374,-0.438524514436722,147.951443847656,1632193893234439936,2021/09/21 11:11:33.048,2.0
97,1.2567021452943832,0.6059360197108518,-0.44001139704759235,-0.08443301148052838,9.65049450568243,-1.516161743803922,-0.100185632705689,0.973600029945374,-0.438524514436722,147.971278076172,1632193893254279936,2021/09/21 11:11:33.068,2.0
98,0.8089954067526527,1.0463428924797815,-0.7404933724331999,-0.05745542100031729,9.64948925667263,-1.5331421732870132,-0.168602481484413,0.973600029945374,-0.40431609749794,147.991112548828,1632193893274109952,2021/09/21 11:11:33.088,2.0
99,0.35515786515027814,1.430717803587023,-1.048425756679999,-0.03090240993468482,9.648473303220555,-1.5496148147289768,-0.22174771130085,0.79461669921875,-0.364609867334366,148.010947021484,1632193893293949952,2021/09/21 11:11:33.108,2.0
100,-0.0650780819503638,1.7348492378332283,-1.340782537153084,-0.004775743152412798,9.647448356796195,-1.5655769705585767,-0.259010463953018,0.608913779258728,-0.349338263273239,148.030781494141,1632193893313779968,2021/09/21 11:11:33.127,2.0
101,-0.4227688229593024,1.9254515749210628,-1.5979123016203551,0.020921662931800488,9.646416025442397,-1.5810277225939835,-0.332314223051071,0.608913779258728,-0.332844913005829,148.050615966797,1632193893333619968,2021/09/21 11:11:33.147,2.0
102,-0.6996183023807627,1.9744102242908834,-1.8068208234166596,0.04618526411133684,9.645377865299787,-1.59596754729673,-0.353083610534668,0.449478060007095,-0.199065536260605,148.070450195313,1632193893353449984,2021/09/21 11:11:33.167,2.0
103,-0.8880209351093448,1.878215985648337,-1.9632289887471148,0.07100844137339447,9.64433544612219,-1.6103978457773724,-0.353083610534668,0.461695373058319,-0.194789484143257,148.090284667969,1632193893373289984,2021/09/21 11:11:33.187,2.0
104,-0.990836185249562,1.672452989891382,-2.0683542923717533,0.09538212809874219,9.643290429612756,-1.6243203980146663,-0.353083610534668,0.608913779258728,-0.191735163331032,148.110118896484,1632193893393120000,2021/09/21 11:11:33.207,2.0
105,-1.0170391453245566,1.4241745009704725,-2.120257948254268,0.11929450193920652,9.64224464810958,-1.637736810740439,-0.353083610534668,0.704819560050964,0.0110719222575426,148.129953613281,1632193893412950016,2021/09/21 11:11:33.227,2.0
106,-0.9730221851125362,1.198938508134579,-2.1097362880427144,0.1427307658517456,9.641200173135717,-1.6506480313164489,-0.321318656206131,0.848372757434845,0.225485444068909,148.149788085938,1632193893432790016,2021/09/21 11:11:33.246,2.0
107,-0.8559458552701058,1.0260463471132144,-2.0271837390534775,0.16567312213494326,9.640159376626244,-1.6630539372488553,-0.317653477191925,0.848372757434845,0.425238192081451,148.169622314453,1632193893452620032,2021/09/21 11:11:33.266,2.0
108,-0.6589023747504537,0.8886292128329432,-1.872634145097771,0.18810101001016405,9.639124992477734,-1.6749529614551146,-0.305436164140701,0.892355024814606,0.425238192081451,148.189456787109,1632193893472460032,2021/09/21 11:11:33.286,2.0
109,-0.38818636428172154,0.7415717913688383,-1.6588876144554925,0.20999155950148374,9.638100177207061,-1.6863417341149902,-0.0904117971658707,0.952219784259796,0.425238192081451,148.209291015625,1632193893492290048,2021/09/21 11:11:33.306,2.0
110,-0.07596569110908702,0.5405067412606913,-1.4056751880211404,0.23132012623755865,9.637088557203223,-1.6972147908736823,0.0910150185227394,0.952219784259796,0.251141756772995,148.229125732422,1632193893512130048,2021/09/21 11:11:33.326,2.0
111,0.22658824552705947,0.2626196441255535,-1.1305087336180775,0.2520607719974615,9.636094249139212,-1.7075644279939197,0.244952946901321,1.46290266513825,0.0923169329762459,148.248959960937,1632193893531960064,2021/09/21 11:11:33.346,2.0
112,0.4697498144233839,-0.08951263843318645,-0.8444496051453912,0.27218664093662115,9.635121848522772,-1.7173807480816365,0.400112569332123,1.49650025367737,0.0923169329762459,148.268794433594,1632193893551790080,2021/09/21 11:11:33.365,2.0
113,0.6223047317697153,-0.4960721684124886,-0.5551481030518537,0.2916702669384828,9.634176387561997,-1.7266518931415544,0.400112569332123,1.53376293182373,0.0923169329762459,148.28862890625,1632193893571630080,2021/09/21 11:11:33.385,2.0
114,0.6764703129915813,-0.9302174068339109,-0.2723867820932808,0.31048387362445057,9.633263267266559,-1.7353644203995482,0.400112569332123,1.60523414611816,0.125303626060486,148.308463134766,1632193893591460096,2021/09/21 11:11:33.405,2.0
115,0.6431464871068768,-1.3644235340486248,-0.010622124235772308,0.32859971354821127,9.632388175876144,-1.7435037246512037,0.276717901229858,1.61195361614227,0.125303626060486,148.328297851562,1632193893611300096,2021/09/21 11:11:33.425,2.0
116,0.5430641007804722,-1.7717635186429141,0.21335132616798652,0.3459904582241164,9.631557010731933,-1.7510543918955206,0.276717901229858,1.75795030593872,0.125303626060486,148.348132080078,1632193893631130112,2021/09/21 11:11:33.445,2.0
117,0.398243665620392,-2.1239143028586485,0.3851997913022968,0.3626296134912595,9.630775814696433,-1.7580004252247556,0.276717901229858,1.82025849819183,0.0416151583194733,148.367966552734,1632193893650970112,2021/09/21 11:11:33.465,2.0
118,0.22719036455682246,-2.3895322342644034,0.4964085441701611,0.37849191381880953,9.630050723753111,-1.7643253829917935,0.361017227172852,1.87584722042084,-0.0799469202756882,148.38780078125,1632193893670799872,2021/09/21 11:11:33.484,2.0
119,0.04478987614886939,-2.5361679793440786,0.5445939797597856,0.39355364941915544,9.629387913263582,-1.7700125247127045,0.368958473205566,1.99068975448608,-0.181961327791214,148.407635253906,1632193893690639872,2021/09/21 11:11:33.504,2.0
120,-0.13501122081112038,-2.536215045197475,0.5317279591222879,0.40779290444354266,9.62879353545986,-1.775045021722338,0.368958473205566,2.00473976135254,-0.243047803640366,148.427469970703,1632193893710469888,2021/09/21 11:11:33.524,2.0
121,-0.29613886532025163,-2.374912303629268,0.4617718953167012,0.4211897188253737,9.628273651518372,-1.7794062146902159,0.368958473205566,2.01329183578491,-0.243047803640366,148.447304199219,1632193893730299904,2021/09/21 11:11:33.544,2.0
122,-0.41853401591128553,-2.0571798972342568,0.3387706816844408,0.43372620153620667,9.627834165404288,-1.7830798720605263,0.33230659365654,2.06399345397949,-0.243047803640366,148.467138671875,1632193893750139904,2021/09/21 11:11:33.564,2.0
123,-0.47878948550897876,-1.610217875486718,0.16576525000216835,0.445386620658529,9.627480764364856,-1.7860504171233509,0.247396394610405,2.06399345397949,-0.268093258142471,148.486972900391,1632193893769969920,2021/09/21 11:11:33.584,2.0
124,-0.45425398119261334,-1.0800196916170393,-0.05636208141303688,0.4561574955221907,9.627218869926267,-1.7883030974262426,0.247396394610405,2.01329183578491,-0.268093258142471,148.506807373047,1632193893789809920,2021/09/21 11:11:33.603,2.0
125,-0.32986561464704733,-0.5211342228015089,-0.330751945942889,0.46602770729047255,9.62705360261123,-1.7898240766274525,0.247396394610405,2.01329183578491,-0.271147578954697,148.526641845703,1632193893809639936,2021/09/21 11:11:33.623,2.0
126,-0.10418027851254852,0.018340362076738878,-0.6645739378531559,0.47498860293442297,9.626989755427063,-1.7906004860140896,0.469140291213989,1.88501024246216,-0.432415872812271,148.546476318359,1632193893829479936,2021/09/21 11:11:33.643,2.0
127,0.20921157408705543,0.5094299600613961,-1.0637983670110307,0.48303401659595113,9.62703175697958,-1.7906205618906594,0.549163520336151,1.88501024246216,-0.580245137214661,148.566310791016,1632193893849309952,2021/09/21 11:11:33.663,2.0
128,0.5843072586011102,0.9439309244637843,-1.5242594606927629,0.490160138211461,9.6271836020777,-1.7898739991397918,0.549163520336151,1.88501024246216,-0.580245137214661,148.586145019531,1632193893869149952,2021/09/21 11:11:33.683,2.0
129,0.9849332706379327,1.3230241600780903,-2.023438437025329,0.4963652419620011,9.627448747474215,-1.7883525134807172,0.549163520336151,1.94609665870667,-0.580245137214661,148.605979492187,1632193893888979968,2021/09/21 11:11:33.703,2.0
130,1.36487376372737,1.639973531137904,-2.5161590779110647,0.5016493790062849,9.627830000809475,-1.786050433706881,0.0678021684288979,2.20693588256836,-0.6578249335289,148.625813720703,1632193893908809984,2021/09/21 11:11:33.722,2.0
131,1.6697058321308753,1.8696498951152538,-2.940949686868163,0.5060141655467704,9.628329453970887,-1.7829650557655152,0.0678021684288979,2.20693588256836,-0.6578249335289,148.6456484375,1632193893928649984,2021/09/21 11:11:33.742,2.0
132,1.8468037063199976,1.9774876696787829,-3.2410596565076446,0.5094627135579546,9.628948506763475,-1.7790965553536633,0.0678021684288979,2.20693588256836,-0.555199682712555,148.665482910156,1632193893948480000,2021/09/21 11:11:33.762,2.0
133,1.8647827264204073,1.9438009222248813,-3.384412376181992,0.5119995861662524,9.629687963179663,-1.774447578863106,0.368958473205566,1.45251798629761,-0.548480153083801,148.685317138672,1632193893968320000,2021/09/21 11:11:33.782,2.0
134,1.7295585668092066,1.7768251573819314,-3.3661915779417755,0.513630616785038,9.630548102125,-1.769022992103131,0.368958473205566,1.45251798629761,-0.546647548675537,148.705151611328,1632193893988150016,2021/09/21 11:11:33.802,2.0
135,1.4833306254810907,1.5006267408601264,-3.2041958822708545,0.5143626056416928,9.631528641943815,-1.7628301330774638,0.368958473205566,1.45251798629761,-0.458072185516357,148.724986083984,1632193894007990016,2021/09/21 11:11:33.822,2.0
136,1.188934236924463,1.1380680993830357,-2.9382879370127397,0.5142030487469567,9.632628631823094,-1.7558793703795734,-0.0885792076587677,1.55086719989777,-0.37132939696312,148.744820556641,1632193894027820032,2021/09/21 11:11:33.841,2.0
137,0.9083168018708763,0.7076751336910818,-2.624195891964935,0.5131600013867501,9.633846371548605,-1.7481844977883199,-0.361635714769363,1.55086719989777,-0.352392584085464,148.764655029297,1632193894047650048,2021/09/21 11:11:33.861,2.0
138,0.683875451567944,0.22935221642986447,-2.3153514125658314,0.5112420611484001,9.635179420668495,-1.7397627161346918,-0.361635714769363,1.55086719989777,-0.346894800662994,148.784489257813,1632193894067490048,2021/09/21 11:11:33.881,2.0
139,0.5314181371968336,-0.27038127116587446,-2.0450189858511467,0.5084583948044386,9.636624682633538,-1.7306342844267257,-0.361635714769363,1.3358428478241,-0.342618763446808,148.804323730469,1632193894087320064,2021/09/21 11:11:33.901,2.0
140,0.44512115684677894,-0.7564636555871217,-1.823146100077158,0.5048187453496684,9.638178513931663,-1.7208220618337067,-0.219304248690605,1.12875962257385,-0.322460204362869,148.824158203125,1632193894107160064,2021/09/21 11:11:33.921,2.0
141,0.4078178804143737,-1.188225039166433,-1.6474527478342096,0.5003334030498202,9.639836815985566,-1.7103511259419746,-0.0348231084644795,1.03285396099091,-0.305966854095459,148.843992675781,1632193894126990080,2021/09/21 11:11:33.941,2.0
142,0.4003826215604933,-1.5268264453636375,-1.5154109836210963,0.4950131571417818,9.641595089405168,-1.6992485612291124,-0.0348231084644795,1.00353240966797,-0.275423616170883,148.863826904297,1632193894146830080,2021/09/21 11:11:33.960,2.0
143,0.40713280003607744,-1.7433900150546497,-1.4275710724713597,0.488869253159324,9.643448452018925,-1.6875434125857904,-0.0348231084644795,0.955274105072022,-0.235106557607651,148.883661376953,1632193894166660096,2021/09/21 11:11:33.980,2.0
144,0.41743851967321,-1.823740277681789,-1.3838338923731797,0.4819133783750334,9.645391639964135,-1.6752667114338617,-0.169824212789535,0.876472532749176,-0.164246246218681,148.903495849609,1632193894186500096,2021/09/21 11:11:34.000,2.0
145,0.42482155357522455,-1.7687675864789367,-1.3778981858979806,0.47415769340081837,9.647419015432114,-1.6624514579973988,-0.25534525513649,0.756132185459137,-0.0701730847358704,148.923330322266,1632193894206330112,2021/09/21 11:11:34.020,2.0
146,0.42431000832844445,-1.5925349334786196,-1.393422909247853,0.46561492197408677,9.649524592885697,-1.64913249756213,-0.300549268722534,0.687104463577271,-0.0573449246585369,148.943164794922,1632193894226160128,2021/09/21 11:11:34.040,2.0
147,0.40930348440348097,-1.3198725228744106,-1.404655580572666,0.4562984955509569,9.65170208114932,-1.635346299602736,-0.307268768548966,0.660226404666901,-0.0573449246585369,148.962999023438,1632193894246000128,2021/09/21 11:11:34.060,2.0
148,0.37032102477177253,-0.9834859554125063,-1.3832868327703065,0.446222728774453,9.653944934353111,-1.6211306756467911,-0.307268768548966,0.59730738401413,-0.0573449246585369,148.982833496094,1632193894265829888,2021/09/21 11:11:34.079,2.0
149,0.29750099860756696,-0.6212490653695377,-1.3093437339158263,0.4354029928222896,9.656246406173267,-1.6065244704936597,-0.307268768548966,0.508121132850647,-0.0573449246585369,149.002668212891,1632193894285669888,2021/09/21 11:11:34.099,2.0
150,0.1862935616107234,-0.2747149632288957,-1.180222103394725,0.4238558622141714,9.658599601018238,-1.591567268292469,-0.307268768548966,0.508121132850647,-0.0573449246585369,149.022502441406,1632193894305499904,2021/09/21 11:11:34.119,2.0
151,0.04290557420714261,0.012191901650931994,-1.0128272624108259,0.41159923255674147,9.660997516655424,-1.576299146603971,-0.307268768548966,0.508121132850647,-0.0353537946939468,149.042336914063,1632193894325339904,2021/09/21 11:11:34.139,2.0
152,-0.11476961978082957,0.19780706820787292,-0.8381142257367451,0.39865243688907576,9.663433081752745,-1.5607604486080788,-0.443491607904434,0.436039060354233,-0.0353537946939468,149.062171142578,1632193894345169920,2021/09/21 11:11:34.159,2.0
153,-0.2625899747981756,0.2551869341290692,-0.6908720943697337,0.38503640259169614,9.665899202341539,-1.5449914684639416,-0.443491607904434,0.373730838298798,-0.0353537946939468,149.082005859375,1632193894365009920,2021/09/21 11:11:34.179,2.0
154,-0.379287001232653,0.1899463497833106,-0.5970535539030801,0.3707738351042198,9.668388827782463,-1.5290319799076708,-0.443491607904434,0.129384979605675,-0.145309448242187,149.101840087891,1632193894384839936,2021/09/21 11:11:34.198,2.0
155,-0.452957657385216,0.04704668041520188,-0.5625326901102092,0.35588931144770497,9.670895029886209,-1.5129206908907986,-0.337201148271561,0.129384979605675,-0.341397017240524,149.121674560547,1632193894404679936,2021/09/21 11:11:34.218,2.0
156,-0.4807028183147943,-0.10747009567313233,-0.5721653296600452,0.3404091650813616,9.673411078838209,-1.4966947855207706,-0.217471659183502,0.129384979605675,-0.341397017240524,149.141509033203,1632193894424509952,2021/09/21 11:11:34.238,2.0
157,-0.46377569782470995,-0.219365545254133,-0.6009049156807005,0.3243611848858231,9.675930503636044,-1.480389634913668,-0.0641446188092232,0.129384979605675,-0.341397017240524,149.161343261719,1632193894444339968,2021/09/21 11:11:34.258,2.0
158,-0.40385241170629677,-0.2688277258851758,-0.6257560339278296,0.3077742626931005,9.678447131155206,-1.4640386686926739,-0.0641446188092232,0.129384979605675,-0.285808324813843,149.181177734375,1632193894464179968,2021/09/21 11:11:34.278,2.0
159,-0.3037047010865097,-0.26945451794652614,-0.6304689166556078,0.29067809794833477,9.680955103517693,-1.447673372575779,-0.0641446188092232,0.076850600540638,-0.179517865180969,149.201012207031,1632193894484009984,2021/09/21 11:11:34.298,2.0
160,-0.17102268454395522,-0.2494499323468926,-0.605512063512638,0.2731029868433656,9.683448881041162,-1.4313233537149601,-0.105072550475597,-0.313491970300674,-0.179517865180969,149.220846679687,1632193894503849984,2021/09/21 11:11:34.317,2.0
161,-0.02095604977498769,-0.23075459911449964,-0.5475872590301049,0.2550796734753861,9.685923242310027,-1.4150163963312934,-0.105072550475597,-0.376411020755768,-0.179517865180969,149.240680908203,1632193894523680000,2021/09/21 11:11:34.337,2.0
162,0.12572842608000165,-0.21941420695985817,-0.4594586434964725,0.2366392245111149,9.688373288412194,-1.3987784658933087,-0.105072550475597,-0.376411020755768,-0.194789484143257,149.260515380859,1632193894543510016,2021/09/21 11:11:34.357,2.0
163,0.2480142023330186,-0.20985647621776404,-0.34931847450609527,0.21781288899743573,9.690794449012529,-1.3826336930338676,-0.0226058103144169,-0.376411020755768,-0.236939147114754,149.280350097656,1632193894563350016,2021/09/21 11:11:34.377,2.0
164,0.3304718755440811,-0.19546181630789933,-0.22952688157337864,0.19863192117191364,9.693182483310776,-1.3666044005101639,-0.0226058103144169,-0.177269130945206,-0.236939147114754,149.300184326172,1632193894583180032,2021/09/21 11:11:34.397,2.0
165,0.3663246741028935,-0.17593841904582525,-0.11481383014704197,0.17912737504512385,9.695533473322385,-1.3507111913013743,-0.0226058103144169,-0.123513028025627,-0.236939147114754,149.320018798828,1632193894603020032,2021/09/21 11:11:34.417,2.0
166,0.356292152012112,-0.15744927339709125,-0.019662896577381433,0.15932990378117928,9.697843813706406,-1.3349730542625649,-0.0445969440042973,-0.110684871673584,-0.194789484143257,149.339853027344,1632193894622850048,2021/09/21 11:11:34.436,2.0
167,0.3057506709351263,-0.14712726763951353,0.04502743011768108,0.13926959265864985,9.700110203520326,-1.319407437420894,-0.0445969440042973,-0.103965356945992,-0.189291700720787,149.359687744141,1632193894642690048,2021/09/21 11:11:34.456,2.0
168,0.22385893632716325,-0.14654444940826886,0.07493380808409242,0.11897582871835415,9.70232964116676,-1.3040302800240176,-0.0445969440042973,-0.103965356945992,-0.188069969415665,149.379522216797,1632193894662520064,2021/09/21 11:11:34.476,2.0
169,0.12399384529495128,-0.14931231401420292,0.07309037733999356,0.09847719338112923,9.704499419744884,-1.2888560316729674,-0.00733419414609671,-0.0850285515189171,-0.150807231664658,149.399356445312,1632193894682360064,2021/09/21 11:11:34.496,2.0
170,0.022161366618619074,-0.14524292302608935,0.04702065190933581,0.0778013747891241,9.706617118636032,-1.2738976988367252,0.0794085934758186,-0.0208877548575401,-0.0909424871206284,149.419190917969,1632193894702190080,2021/09/21 11:11:34.516,2.0
171,-0.06713122494508082,-0.12775871945328773,0.004077996510372156,0.05697511993828698,9.708680587267768,-1.2591669583591496,0.150268912315369,0.09456567466259,-0.00847574882209301,149.439025390625,1632193894722020096,2021/09/21 11:11:34.536,2.0
172,-0.13473448302412708,-0.09812384082325176,-0.050254636448478544,0.03602425724855821,9.710687918090935,-1.244674367338631,0.150268912315369,0.09456567466259,0.0452803485095501,149.458859863281,1632193894741860096,2021/09/21 11:11:34.555,2.0
173,-0.1775978106845193,-0.06347089217601129,-0.11019056751738872,0.014973806666984687,9.712637409738564,-1.230429661134412,0.150268912315369,0.09456567466259,0.0703257992863655,149.478694091797,1632193894761690112,2021/09/21 11:11:34.575,2.0
174,-0.1962379801493943,-0.03133189717339199,-0.16854165606914287,-0.0061518366451842775,9.714527527485926,-1.2164420756184653,0.0305394195020199,-0.0715895295143127,0.0782670453190804,149.498528564453,1632193894781530112,2021/09/21 11:11:34.595,2.0
175,-0.19188678902524176,-0.005753610291828186,-0.21932426306876682,-0.02732868413140676,9.716356870230676,-1.2027206136372532,0.0305394195020199,-0.329374462366104,0.0782670453190804,149.51836328125,1632193894801359872,2021/09/21 11:11:34.615,2.0
176,-0.16645552615397646,0.012439307783599864,-0.2601099715791097,-0.048532938825608954,9.71812414745633,-1.1892742273386165,0.0305394195020199,-0.354419887065888,0.0782670453190804,149.538197509766,1632193894821199872,2021/09/21 11:11:34.635,2.0
177,-0.12500059599076754,0.02342057348473328,-0.290601243122255,-0.06974080343116545,9.719828162372586,-1.1761119492696799,0.0342046059668064,-0.404510796070099,0.0367282405495644,149.558031982422,1632193894841029888,2021/09/21 11:11:34.655,2.0
178,-0.0773310018331383,0.027797786110100153,-0.30950977690327025,-0.09092832604850959,9.721467796093608,-1.163243014868814,0.0342046059668064,-0.406343400478363,-0.0555123314261437,149.577866210937,1632193894860869888,2021/09/21 11:11:34.674,2.0
179,-0.036284952612902925,0.02780272284421082,-0.31350529837719254,-0.11207130752787786,9.723041990633341,-1.1506769935881815,0.0342046059668064,-0.421004146337509,-0.128205239772797,149.597700927734,1632193894880699904,2021/09/21 11:11:34.694,2.0
180,-0.013134437012463897,0.027396973855614327,-0.2993164366865502,-0.1331452900511887,9.724549730866372,-1.1384239253724255,0.0238199084997177,-0.421004146337509,-0.152639821171761,149.617535400391,1632193894900539904,2021/09/21 11:11:34.714,2.0
181,-0.01271710837501221,0.0302484599139995,-0.2670795656765165,-0.15412561900590227,9.7259900263359,-1.1264944529081602,0.0219873115420341,-0.421004146337509,-0.152639821171761,149.637369628906,1632193894920369920,2021/09/21 11:11:34.734,2.0
182,-0.03157080698087414,0.037769786385002974,-0.22189359877600157,-0.17498754801946556,9.727361893491164,-1.114899943380203,0.0201547183096409,-0.415506362915039,-0.152639821171761,149.657204101563,1632193894940199936,2021/09/21 11:11:34.754,2.0
183,-0.06020160304335785,0.04921980870207845,-0.1720823557735784,-0.19570635919836296,9.728664338609017,-1.1036525975760978,0.00793742388486862,-0.397180438041687,-0.148363769054413,149.677038330078,1632193894960039936,2021/09/21 11:11:34.774,2.0
184,-0.08725272949952606,0.0629870379458541,-0.12544875647061515,-0.2162574840706093,9.729896342381645,-1.0927655394494316,-0.0415426194667816,-0.397180438041687,-0.137368202209473,149.696873046875,1632193894979869952,2021/09/21 11:11:34.793,2.0
185,-0.10311047900541463,0.0772030447170662,-0.08635124360571697,-0.23661661940079373,9.731056848408873,-1.0822528697582137,-0.0952987149357796,-0.397180438041687,-0.122707456350327,149.716707275391,1632193894999709952,2021/09/21 11:11:34.813,2.0
186,-0.10236801883750435,0.0896223618519631,-0.055397383634272324,-0.25675983490875026,9.732144757823676,-1.0721296671561729,-0.125841945409775,-0.436275780200958,-0.115377075970173,149.736541748047,1632193895019539968,2021/09/21 11:11:34.833,2.0
187,-0.08505924367845512,0.09775931258669866,-0.031034381546244494,-0.27666367280212006,9.733158930334183,-1.06241193405722,-0.135615780949593,-0.482701480388641,-0.112322747707367,149.756376220703,1632193895039379968,2021/09/21 11:11:34.853,2.0
188,-0.05618807282513888,0.0995405678991635,-0.011248254516776624,-0.29630524108078404,9.734098189878724,-1.053116500001231,-0.144167885184288,-0.482701480388641,-0.101327180862427,149.776210693359,1632193895059209984,2021/09/21 11:11:34.873,2.0
189,-0.023706873217469317,0.09387163746809976,0.005502969666240259,-0.3156622996268736,9.734961332998207,-1.0442608968334326,-0.167380750179291,-0.482701480388641,-0.0939968079328537,149.796045166016,1632193895079049984,2021/09/21 11:11:34.893,2.0
190,0.003921102793676353,0.08055926274772521,0.019873684905126896,-0.3347133343416554,9.735747139509096,-1.035863209496858,-0.174100264906883,-0.442384421825409,-0.0939968079328537,149.815879394531,1632193895098880000,2021/09/21 11:11:34.912,2.0
191,0.019713978853053527,0.059949316346378956,0.03137782015541047,-0.3534376136560157,9.736454386001396,-1.0279418992300413,-0.182652369141579,-0.370302379131317,-0.0939968079328537,149.835714111328,1632193895118710016,2021/09/21 11:11:34.932,2.0
192,0.019525672848146162,0.032897211248844274,0.038681332663475204,-0.37181522290206853,9.737081861994238,-1.0205156020361799,-0.184484958648682,-0.307383328676224,-0.097051128745079,149.855548583984,1632193895138550016,2021/09/21 11:11:34.952,2.0
193,0.0023643272614896197,0.0008467317700232022,0.040555954505151245,-0.3898270816128449,9.737628387072432,-1.0136029151615076,-0.182652369141579,-0.237744733691215,-0.100105457007885,149.8753828125,1632193895158380032,2021/09/21 11:11:34.972,2.0
194,-0.030609182205662215,-0.03427978774160296,0.03652729077881424,-0.40745496201253706,9.738092826839447,-1.0072221833487938,-0.174100264906883,-0.196205943822861,-0.106824964284897,149.895217285156,1632193895178220032,2021/09/21 11:11:34.992,2.0
195,-0.07764874226527374,-0.07006386680896692,0.026769331758305974,-0.42468152439928325,9.738474106472232,-1.0013912892041001,-0.163715556263924,-0.117404378950596,-0.111711882054806,149.915051513672,1632193895198050048,2021/09/21 11:11:35.012,2.0
196,-0.13730737301078075,-0.10350660371659186,0.011950964078713034,-0.44149036970002353,9.738771221367566,-0.9961274536687073,-0.125231087207794,-0.0123356487601996,-0.112322747707367,149.934886230469,1632193895217890048,2021/09/21 11:11:35.031,2.0
197,-0.207928689401822,-0.13140587675842927,-0.006656490269989745,-0.45786609905291087,9.738983244148317,-0.9914470625032733,-0.0940769910812378,0.0792940557003021,-0.112322747707367,149.954720458984,1632193895237720064,2021/09/21 11:11:35.051,2.0
198,-0.28609310612377664,-0.15104954496746054,-0.02727812940339954,-0.47379437076031383,9.739109327398536,-0.9873655353653027,-0.0879683420062065,0.131828412413597,-0.112322747707367,149.974554931641,1632193895257550080,2021/09/21 11:11:35.071,2.0
199,-0.3655752794359606,-0.1608051977153494,-0.04801823400431985,-0.48926195523279664,9.73914870237892,-0.983897237719532,-0.0824705585837364,0.177643269300461,-0.0848338380455971,149.994389404297,1632193895277390080,2021/09/21 11:11:35.091,2.0
200,-0.43824468395244054,-0.16062617926697176,-0.06700815356072662,-0.5042567984731479,9.739100674744861,-0.9810554182973059,-0.0824705585837364,0.234453693032265,-0.0677296295762062,150.014223876953,1632193895297220096,2021/09/21 11:11:35.111,2.0
201,-0.4961877170663528,-0.1520915891717283,-0.08217526257589501,-0.5187680989968586,9.738964618506277,-0.9788521547922969,-0.0745293200016022,0.234453693032265,-0.0518471412360668,150.034058349609,1632193895317060096,2021/09/21 11:11:35.131,2.0
202,-0.5331085699613509,-0.13768660096141352,-0.09107762627649338,-0.5327863819590697,9.73873996978856,-0.9772983037898813,-0.0745293200016022,0.234453693032265,-0.0414624437689781,150.053892578125,1632193895336890112,2021/09/21 11:11:35.150,2.0
203,-0.5447339296747372,-0.1202352604910384,-0.09107348902719659,-0.5463035404426665,9.738426222637177,-0.9764034559340667,-0.0745293200016022,0.191082298755646,-0.0384081192314625,150.073727050781,1632193895356730112,2021/09/21 11:11:35.170,2.0
204,-0.5293011025636329,-0.1029664087163043,-0.07978983542491822,-0.5593128324445722,9.73802292855467,-0.9761758880933198,-0.0800270959734917,0.186195373535156,-0.0365755259990692,150.093561767578,1632193895376560128,2021/09/21 11:11:35.190,2.0
205,-0.488307335088963,-0.08932046089576437,-0.05586814489004926,-0.571808860594695,9.737529698653296,-0.9766225022640643,-0.0800270959734917,0.186195373535156,-0.0292451493442059,150.113395996094,1632193895396400128,2021/09/21 11:11:35.210,2.0
206,-0.42690877746435124,-0.08207245254804203,-0.019733232040958188,-0.583787575402868,9.736946204955315,-0.9777487556000103,-0.0800270959734917,0.186195373535156,-0.0133626647293568,150.13323046875,1632193895416229888,2021/09/21 11:11:35.230,2.0
207,-0.3534659945743176,-0.08247448910014699,0.025858031731772993,-0.5952463083793564,9.736272179268717,-0.9795585953325221,-0.0696424022316933,0.247281849384308,-0.00358883058652282,150.153064697266,1632193895436069888,2021/09/21 11:11:35.250,2.0
208,-0.2780878554193798,-0.08997640749047975,0.07545554331399698,-0.6061837978075871,9.735507412027088,-0.9820544066719091,-0.0226058103144169,0.321196466684341,0.00862846337258816,150.172899414062,1632193895455899904,2021/09/21 11:11:35.269,2.0
209,-0.21112946874854735,-0.1024151143987324,0.12127326501018497,-0.6166001761042927,9.734651753373843,-0.9852369780399758,0.0445893071591854,0.401219755411148,0.0202348940074444,150.192733642578,1632193895475729920,2021/09/21 11:11:35.289,2.0
210,-0.1629973944708651,-0.11662803726855134,0.1549621951739187,-0.6264969231720788,9.733705115545767,-0.9891054926978726,0.110562689602375,0.493460327386856,0.0269544050097466,150.212568115234,1632193895495569920,2021/09/21 11:11:35.309,2.0
211,-0.14454914513905823,-0.1294727474633764,0.17029052133329073,-0.6358767944937153,9.732667475000806,-0.993657558037509,0.147825449705124,0.586311817169189,0.033673919737339,150.232402832031,1632193895515399936,2021/09/21 11:11:35.329,2.0
212,-0.16580454866219582,-0.138532804310565,0.16539070562042632,-0.6447437112461372,9.731538874866436,-0.9988892770990053,0.147825449705124,0.661448180675507,0.0428368896245956,150.252237060547,1632193895535239936,2021/09/21 11:11:35.349,2.0
213,-0.2323690644049615,-0.14197376145653487,0.14326812016637888,-0.6531025934883412,9.730319429076326,-1.0047953603296276,0.147825449705124,0.695656597614288,0.0654388815164566,150.272071533203,1632193895555069952,2021/09/21 11:11:35.369,2.0
214,-0.3414429762219801,-0.13822616078395278,0.11007286971489551,-0.6609591340336153,9.729009328005715,-1.0113692752096684,0.144771128892899,0.695656597614288,0.113086335361004,150.291905761719,1632193895574909952,2021/09/21 11:11:35.389,2.0
215,-0.479918098173682,-0.12625141134747325,0.07244901979196736,-0.6683195310172477,9.727608844383441,-1.0186034237485015,0.11300615221262,0.695656597614288,0.166842430830002,150.311740234375,1632193895594739968,2021/09/21 11:11:35.408,2.0
216,-0.6261057926276687,-0.10608848446770504,0.035694325068428866,-0.675190211239483,9.726118338921895,-1.0264893213945991,0.11300615221262,0.597918212413788,0.205326899886131,150.331574951172,1632193895614579968,2021/09/21 11:11:35.428,2.0
217,-0.7550797101195567,-0.07890883557574306,0.0028016264661682505,-0.6815775861829038,9.724538265283805,-1.0350177483156142,0.11300615221262,0.42443260550499,0.205326899886131,150.351409179687,1632193895634409984,2021/09/21 11:11:35.448,2.0
218,-0.8457541285517479,-0.04632038124671768,-0.025638290708439218,-0.687487880301055,9.722869173007632,-1.0441788632286835,0.120336525142193,0.29248583316803,0.205326899886131,150.371243652344,1632193895654240000,2021/09/21 11:11:35.468,2.0
219,-0.8865350213580326,-0.009606721993515,-0.04985111518881031,-0.6929270441984609,9.721111706572124,-1.0539622953098566,0.16798397898674,0.255833953619003,0.191277012228966,150.391078125,1632193895674080000,2021/09/21 11:11:35.488,2.0
220,-0.8773098557242793,0.030094732806086086,-0.06857907127934912,-0.697900728068331,9.719266599387396,-1.0643572456422152,0.16798397898674,0.247281849384308,0.175394535064697,150.410912597656,1632193895693910016,2021/09/21 11:11:35.508,2.0
221,-0.8275558073392956,0.07058957977940461,-0.07840234514389187,-0.7024142720803356,9.717334662677226,-1.0753526258499435,0.16798397898674,0.202688723802567,0.136299192905426,150.430746826172,1632193895713750016,2021/09/21 11:11:35.527,2.0
222,-0.7513274732556873,0.10749769111758514,-0.07501430188344797,-0.7064726776145575,9.71531677095096,-1.0869372374710973,0.16798397898674,0.153208687901497,0.0959821194410324,150.450581298828,1632193895733580032,2021/09/21 11:11:35.547,2.0
223,-0.6609135309949976,0.13470262709870048,-0.05518650946348109,-0.7100805469290812,9.713213847500246,-1.099099965134796,0.0842955112457275,0.09456567466259,0.0752127170562744,150.470416015625,1632193895753420032,2021/09/21 11:11:35.567,2.0
224,-0.5625061424298897,0.14676320068576798,-0.01858447090151871,-0.7132420084235473,9.71102685374046,-1.111829939012622,0.0586391948163509,0.0133206704631448,0.0715475305914879,150.490250244141,1632193895773250048,2021/09/21 11:11:35.587,2.0
225,-0.45670829292066195,0.14155892490654595,0.031615278853691496,-0.71596066404468,9.708756784452355,-1.1251166305617166,0.0561957359313965,0.0133206704631448,0.0684932097792625,150.510084716797,1632193895793080064,2021/09/21 11:11:35.607,2.0
226,-0.34321067672483774,0.12111648955729805,0.09018470971862327,-0.7182395862417638,9.706404668694631,-1.1389498721640234,0.0280959606170654,0.0133206704631448,0.0629954263567924,150.529918945312,1632193895812920064,2021/09/21 11:11:35.627,2.0
227,-0.22554941016974275,0.09043073503024569,0.1520663422918862,-0.7200813571210241,9.703971575941244,-1.153319811200529,-0.0146645708009601,0.0371443927288055,0.0281761363148689,150.549753662109,1632193895832750080,2021/09/21 11:11:35.646,2.0
228,-0.11227573151441654,0.05533781945871839,0.2133136306419576,-0.7214881149752452,9.70145862804196,-1.168216813656991,-0.0470403991639614,0.115945942699909,-0.0121409371495247,150.569588134766,1632193895852590080,2021/09/21 11:11:35.666,2.0
229,-0.01465672791273921,0.020666624352557422,0.2706516557836189,-0.7224615809976134,9.698867016945597,-1.1836313328683075,-0.063533753156662,0.204521313309669,-0.0329103358089924,150.589422363281,1632193895872420096,2021/09/21 11:11:35.686,2.0
230,0.05668263278195783,-0.010291003541783745,0.32068875679797915,-0.7230030665597131,9.696198026513011,-1.1995537570108068,-0.0818596929311752,0.280268549919128,-0.0329103358089924,150.609257080078,1632193895892260096,2021/09/21 11:11:35.706,2.0
231,0.09457742836609644,-0.035250304990345635,0.35929703070109315,-0.7231134718691484,9.693453057216344,-1.2159742390386856,-0.117900714278221,0.412215322256088,-0.0329103358089924,150.629091308594,1632193895912090112,2021/09/21 11:11:35.726,2.0
232,0.09701689716334226,-0.05283897089256029,0.38146960432792054,-0.7227932739940148,9.690633654435244,-1.232882503651615,-0.127063676714897,0.578370571136475,-0.0274125523865223,150.64892578125,1632193895931930112,2021/09/21 11:11:35.746,2.0
233,0.06763821088020261,-0.06340455512254248,0.38217284767664034,-0.7220424924194961,9.68774154140392,-1.250267628224432,-0.127063676714897,0.682217538356781,-0.0274125523865223,150.668760009766,1632193895951759872,2021/09/21 11:11:35.765,2.0
234,0.015688687905021644,-0.06920381353034294,0.3580955373023323,-0.7208606286360354,9.684778655999667,-1.2681178057266955,-0.127063676714897,0.781788527965546,-0.0274125523865223,150.688594726563,1632193895971599872,2021/09/21 11:11:35.785,2.0
235,-0.04419430275351483,-0.07267131791254186,0.3094345778763807,-0.7192465934662682,9.681747188625165,-1.286420105141378,-0.124009355902672,0.904572308063507,-0.0652861669659615,150.708429199219,1632193895991429888,2021/09/21 11:11:35.805,2.0
236,-0.0934089306651506,-0.07402453011337144,0.2409031447065773,-0.7171986488374968,9.678649618108299,-1.305160241493675,-0.114235527813435,0.921676516532898,-0.125150918960571,150.728263427734,1632193896011259904,2021/09/21 11:11:35.825,2.0
237,-0.11264355422451543,-0.07115260359468352,0.16142858284387324,-0.7147143960056028,9.675488742848962,-1.3243223630431613,-0.114235527813435,0.938780725002289,-0.20700678229332,150.748097900391,1632193896031099904,2021/09/21 11:11:35.845,2.0
238,-0.08594112092431799,-0.06335422814907554,0.0828838142451798,-0.7117908407687601,9.672267704421495,-1.343888864060644,-0.114235527813435,0.95405238866806,-0.280921399593353,150.767932373047,1632193896050929920,2021/09/21 11:11:35.865,2.0
239,-0.005169188394824284,-0.05667006301843468,0.018366444881659533,-0.7084245503939498,9.668990003207284,-1.363840216626392,-0.0720858573913574,0.938780725002289,-0.282143145799637,150.787766845703,1632193896070769920,2021/09/21 11:11:35.884,2.0
240,0.12461126665764428,-0.06424874382244773,-0.020776193582549438,-0.7046118853695458,9.66565951063397,-1.3841547845744273,-0.0696424022316933,0.921676516532898,-0.294971287250519,150.807601318359,1632193896090599936,2021/09/21 11:11:35.904,2.0
241,0.281849990723481,-0.09650531705344435,-0.02813286145760198,-0.7003492741781148,9.662280480628839,-1.4048086105718927,0.0922367498278618,0.991315126419067,-0.363999009132385,150.827435791016,1632193896110439936,2021/09/21 11:11:35.924,2.0
242,0.43419105907383243,-0.14743431200471865,-0.002703115687185885,-0.6956335245556484,9.658857550341132,-1.425775270351313,0.302374213933945,1.01452791690826,-0.38232496380806,150.847270263672,1632193896130269952,2021/09/21 11:11:35.944,2.0
243,0.5544331015680855,-0.1916952259802214,0.05174753179961025,-0.6904621895910728,9.655395713794624,-1.4470259254153939,0.302374213933945,1.02552354335785,-0.38232496380806,150.867104492188,1632193896150109952,2021/09/21 11:11:35.964,2.0
244,0.6350203900966271,-0.19724110296187183,0.12554913586960129,-0.6848339812726995,9.651900264789548,-1.4685295951346615,0.302374213933945,1.16052460670471,-0.38232496380806,150.886938964844,1632193896169939968,2021/09/21 11:11:35.984,2.0
245,0.6873090956856736,-0.14363342532316908,0.20284271815265234,-0.6787491649687512,9.648376725505035,-1.4902535350890942,0.163097068667412,1.24421310424805,-0.21311542391777,150.906773681641,1632193896189769984,2021/09/21 11:11:36.003,2.0
246,0.7276529864600296,-0.03331731018208017,0.26538388889380893,-0.6722098423289581,9.64483078597942,-1.512163579460221,0.163097068667412,1.24421310424805,-0.1300378292799,150.926607910156,1632193896209609984,2021/09/21 11:11:36.023,2.0
247,0.7653523424661841,0.11079098151084336,0.29909697299336024,-0.6652200714437029,9.641268270114189,-1.5342243760964862,0.163097068667412,1.24421310424805,-0.1300378292799,150.946442382813,1632193896229440000,2021/09/21 11:11:36.043,2.0
248,0.8016385250015085,0.2583473437504264,0.29941597131348063,-0.6577858495482539,9.637695123631216,-1.5563995439260225,0.216853156685829,1.23505008220673,-0.1300378292799,150.966276855469,1632193896249280000,2021/09/21 11:11:36.063,2.0
249,0.8358801581661326,0.38520722463095364,0.27185401773131246,-0.6499150427362592,9.634117403740301,-1.578651842673511,0.340858697891235,1.03774082660675,-0.20700678229332,150.986111328125,1632193896269110016,2021/09/21 11:11:36.083,2.0
250,0.8709592539821227,0.47984067413969417,0.22762721846329304,-0.6416173548269648,9.630541249663583,-1.6009434315442752,0.340858697891235,0.922898232936859,-0.222889259457588,151.005945556641,1632193896288950016,2021/09/21 11:11:36.103,2.0
251,0.9136416814945588,0.5417670978516258,0.17785568581375988,-0.6329043824856994,9.626972826310672,-1.6232362280785637,0.340858697891235,0.905794024467468,-0.222889259457588,151.025780029297,1632193896308780032,2021/09/21 11:11:36.122,2.0
252,0.9702745715780611,0.5757237158495523,0.1300772288998573,-0.623789741347348,9.623418251038506,-1.6454923063287403,0.208911925554276,0.899074554443359,-0.222889259457588,151.045614746094,1632193896328610048,2021/09/21 11:11:36.142,2.0
253,1.0409024085435505,0.5860322355268287,0.08824464475484288,-0.6142892077553336,9.619883524420805,-1.6676742411428886,0.0891824290156364,0.889911592006683,-0.153250679373741,151.065448974609,1632193896348450048,2021/09/21 11:11:36.162,2.0
254,1.1162564740267988,0.5742273223806437,0.054489207206057946,-0.604420821682515,9.61637448356258,-1.6897453310324233,-0.00672332849353552,0.822105586528778,-0.126372635364532,151.085283447266,1632193896368280064,2021/09/21 11:11:36.182,2.0
255,1.1804259870389906,0.5402336640233846,0.030188787909693968,-0.594204931407376,9.61289678420781,-1.7116696866264496,-0.0305470526218414,0.759797394275665,-0.116598799824715,151.105117919922,1632193896388120064,2021/09/21 11:11:36.202,2.0
256,1.2176297207810136,0.4844736605449607,0.016256832447210993,-0.5836641938171286,9.609455906257022,-1.733412214136161,-0.0555925071239471,0.748801827430725,-0.091553345322609,151.124952392578,1632193896407950080,2021/09/21 11:11:36.222,2.0
257,1.2186439574457935,0.408159227866149,0.013578709993998007,-0.57282354651847,9.606057174363485,-1.7549385329743,-0.0977421775460243,0.744525790214539,-0.058566652238369,151.144786865234,1632193896427790080,2021/09/21 11:11:36.241,2.0
258,1.1834277677694611,0.3121905234354024,0.022572072142776723,-0.5617101541907185,9.60270578931344,-1.7762148495878503,-0.0977421775460243,0.736584544181824,-0.0322994701564312,151.16462109375,1632193896447620096,2021/09/21 11:11:36.261,2.0
259,1.1194011727846207,0.19767475795132938,0.04157516253078971,-0.5503533298863104,9.599406868267705,-1.797207796772898,-0.0977421775460243,0.709095597267151,-0.0200821775943041,151.184455810547,1632193896467460096,2021/09/21 11:11:36.281,2.0
260,1.0374622660027435,0.06902384177392727,0.06613625812468542,-0.5387844402693958,9.59616548906492,-1.81788425845161,-0.0299361906945705,0.651063442230225,-0.00664315419271588,151.204290039062,1632193896487290112,2021/09/21 11:11:36.301,2.0
261,0.948518214287506,-0.06390806934147374,0.09012127087680305,-0.5270368041805307,9.592986730507135,-1.838211217224976,0.0555848740041256,0.651063442230225,0.0318413227796555,151.224124511719,1632193896507120128,2021/09/21 11:11:36.321,2.0
262,0.8616673211592004,-0.1882353813550913,0.10766835965747065,-0.5151455824919282,9.58987570139036,-1.8581556629938631,0.0952910780906677,0.651063442230225,0.0477238073945045,151.243958984375,1632193896526960128,2021/09/21 11:11:36.341,2.0
263,0.7839278135207738,-0.2932458548210272,0.11502907766053277,-0.5031476486668811,9.586837555939713,-1.877684578258327,0.108119234442711,0.676719784736633,0.0507781319320202,151.263793457031,1632193896546789888,2021/09/21 11:11:36.360,2.0
264,0.721852375231332,-0.37267042509369147,0.11145689212995015,-0.49108143452748465,9.583877499461304,-1.8967649802060553,0.125223457813263,0.676719784736633,0.0611628293991089,151.283627929687,1632193896566629888,2021/09/21 11:11:36.380,2.0
265,0.6842837531628906,-0.4217657972790684,0.09897170300755796,-0.47898674747757136,9.581000789889902,-1.915363988283287,0.176536083221435,0.676719784736633,0.161344647407532,151.303462158203,1632193896586459904,2021/09/21 11:11:36.400,2.0
266,0.6824313112871556,-0.4346782488006227,0.08158119296563454,-0.4669045400009792,9.578212734921845,-1.9334489208883285,0.285270005464554,0.493460327386856,0.29145884513855,151.323296875,1632193896606299904,2021/09/21 11:11:36.420,2.0
267,0.7248557626057526,-0.4076970971501711,0.06361234464794419,-0.45487660208137565,9.575518677074399,-1.950987461637959,0.368958473205566,0.493460327386856,0.387364596128464,151.343131103516,1632193896626129920,2021/09/21 11:11:36.440,2.0
268,0.8113940485564463,-0.34516947389942493,0.047214519106428064,-0.4429451558159226,9.572923959555474,-1.9679479234908253,0.368958473205566,0.493460327386856,0.463111817836761,151.362965576172,1632193896645969920,2021/09/21 11:11:36.460,2.0
269,0.9315731940928432,-0.26110183345446314,0.031067612913604423,-0.4311523423132213,9.570433873054398,-1.9842995951038152,0.368958473205566,0.548438191413879,0.463111817836761,151.382800292969,1632193896665799936,2021/09/21 11:11:36.479,2.0
270,1.0681717031369848,-0.1750169796941116,0.011485958902448051,-0.41953960557451303,9.568053589960053,-2.0000131208620475,0.330473989248276,0.548438191413879,0.463111817836761,151.402634521484,1632193896685639936,2021/09/21 11:11:36.499,2.0
271,1.2038983457688517,-0.10524184552498762,-0.014948399848126041,-0.40814701128894065,9.56578809532129,-2.0150608562952765,0.224794402718544,0.548438191413879,0.379423350095749,151.422468994141,1632193896705469952,2021/09/21 11:11:36.519,2.0
272,1.3295256002539946,-0.06271624110593203,-0.048788936052840876,-0.3970125727841759,9.56364212566693,-2.029417143747766,0.145381987094879,0.46291708946228,0.265802502632141,151.442303222656,1632193896725299968,2021/09/21 11:11:36.539,2.0
273,1.4499170669234187,-0.04784402560126132,-0.08681052825968774,-0.386171662065896,9.561620125600875,-2.043058473605925,0.0830737799406052,0.286377191543579,0.173561945557594,151.462137939453,1632193896745139968,2021/09/21 11:11:36.559,2.0
274,1.5820937042064063,-0.05308331941346871,-0.12281095482107021,-0.3756565607054423,9.559726221136797,-2.055963551484714,0.0800194591283798,0.286377191543579,0.118584111332893,151.481972167969,1632193896764969984,2021/09/21 11:11:36.579,2.0
275,1.7434306623286064,-0.07053994273776976,-0.14966810773692574,-0.3654961688069652,9.557964198132764,-2.068113335129126,0.0830737799406052,0.286377191543579,0.0446694828569889,151.501806640625,1632193896784809984,2021/09/21 11:11:36.598,2.0
276,1.9366727593534565,-0.0971906968151422,-0.16381266282649556,-0.3557158523368691,9.556337480493468,-2.07949107327562,0.145381987094879,0.459251910448074,-0.0958294048905373,151.521641357422,1632193896804640000,2021/09/21 11:11:36.618,2.0
277,2.142676201042848,-0.13265545709132853,-0.16885262141662383,-0.3463373857055513,9.554849110488117,-2.090082340678281,0.137440741062164,0.66511332988739,-0.205785050988197,151.541475585937,1632193896824480000,2021/09/21 11:11:36.638,2.0
278,2.3260889486972647,-0.17509795829174132,-0.17208024117829607,-0.33737895138689217,9.553501726110118,-2.099875088607032,0.137440741062164,0.66511332988739,-0.293138712644577,151.561310058594,1632193896844310016,2021/09/21 11:11:36.658,2.0
279,2.4488647479251013,-0.2213820314110247,-0.17730520956615317,-0.32885518439713546,9.552297528486312,-2.1088597376676117,0.137440741062164,0.66511332988739,-0.365831613540649,151.581144287109,1632193896864140032,2021/09/21 11:11:36.678,2.0
280,2.4830083534547365,-0.2689680299923215,-0.1826700939682229,-0.3207772738172136,9.551238244912945,-2.117029292314554,0.0855172425508499,0.662669897079468,-0.440967977046967,151.600979003906,1632193896883980032,2021/09/21 11:11:36.698,2.0
281,2.418012700504149,-0.3156814407520095,-0.18414020146845533,-0.3131531421428027,9.550325098824052,-2.1243794347708658,0.047643631696701,0.662669897079468,-0.48739367723465,151.620813476562,1632193896903810048,2021/09/21 11:11:36.717,2.0
282,2.2621140580759267,-0.3580768914235652,-0.179702748316986,-0.305987709857691,9.54955879123218,-2.130908580574116,0.025652501732111,0.658393859863281,-0.508773982524872,151.640647705078,1632193896923650048,2021/09/21 11:11:36.737,2.0
283,2.038866682406702,-0.3901705983747439,-0.1706145008782531,-0.29928322325538853,9.548939491650344,-2.1366179003059567,0.025652501732111,0.662669897079468,-0.508773982524872,151.660482421875,1632193896943480064,2021/09/21 11:11:36.757,2.0
284,1.7828974545210394,-0.402899324896727,-0.16001458087262851,-0.293039610774778,9.548466834504707,-2.1415113188553363,0.025652501732111,0.662669897079468,-0.508773982524872,151.680316650391,1632193896963320064,2021/09/21 11:11:36.777,2.0
285,1.5363081562597825,-0.3844397013054486,-0.1517815328342596,-0.28725483783453054,9.548139916427731,-2.1455955076628497,0.0378697961568832,0.658393859863281,-0.354836046695709,151.700151123047,1632193896983150080,2021/09/21 11:11:36.797,2.0
286,1.3404701806956996,-0.3217753373201483,-0.14980408569312573,-0.2819252164582326,9.547957289328872,-2.1488798896937706,0.0836846455931664,0.655950367450714,-0.195400357246399,151.719985839844,1632193897002990080,2021/09/21 11:11:36.817,2.0
287,1.2197815816472386,-0.20365038612451908,-0.1559528910364472,-0.2770456211858138,9.547916944733132,-2.151376676192074,0.0836846455931664,0.513618886470795,-0.132481291890144,151.739820068359,1632193897022820096,2021/09/21 11:11:36.836,2.0
288,1.1668148368361906,-0.024337519291690222,-0.16849710295649153,-0.2726096037368505,9.548016288149574,-2.153100941774803,0.0836846455931664,0.48918429017067,-0.132481291890144,151.759654541016,1632193897042650112,2021/09/21 11:11:36.856,2.0
289,1.1416835094532116,0.21340126539274298,-0.18353687514164826,-0.2686094364264025,9.548252108479922,-2.154070720111118,0.00915915332734585,0.48918429017067,-0.132481291890144,151.779489013672,1632193897062490112,2021/09/21 11:11:36.876,2.0
290,1.0868268120387008,0.49850909443508856,-0.19817884986069148,-0.26503611793197146,9.548620553047963,-2.1543070814751033,-0.00672332849353552,0.48918429017067,-0.210671976208687,151.799323486328,1632193897082319872,2021/09/21 11:11:36.896,2.0
291,0.9500818571473503,0.8158462435490053,-0.21164502528071502,-0.2618793729401906,9.549117116712111,-2.1538341610881044,-0.0183297581970692,0.67610889673233,-0.210671976208687,151.819157714844,1632193897102159872,2021/09/21 11:11:36.916,2.0
292,0.7069166355722148,1.1506393268214363,-0.22135920713335708,-0.2591276675506927,9.549736643311146,-2.152679144166903,-0.0458186715841293,0.704208672046661,-0.210671976208687,151.838992431641,1632193897121989888,2021/09/21 11:11:36.936,2.0
293,0.3711775577844129,1.4871361810508505,-0.2170112773546393,-0.2567682319860221,9.550473332324566,-2.150872233473636,-0.096520446240902,0.728643298149109,-0.131870418787003,151.858826904297,1632193897141829888,2021/09/21 11:11:36.955,2.0
294,-0.011470844950363053,1.8003358392269178,-0.18099493690176915,-0.2547870445156976,9.551320751955721,-2.1484465955742285,-0.203421771526337,0.867920458316803,-0.000534506980329752,151.878661132813,1632193897161659904,2021/09/21 11:11:36.975,2.0
295,-0.38215754799595764,2.047431517924404,-0.0978683300712536,-0.2531687102664083,9.552271869439885,-2.1454382460183803,-0.203421771526337,1.06217539310455,-0.000534506980329752,151.898495605469,1632193897181499904,2021/09/21 11:11:36.995,2.0
296,-0.6884220184357768,2.1702406467495194,0.034706248945402404,-0.25189620622480047,9.553319103746464,-2.1418858508624012,-0.203421771526337,1.09455120563507,-0.000534506980329752,151.918330078125,1632193897201329920,2021/09/21 11:11:37.015,2.0
297,-0.8976564610728652,2.11546008754631,0.2024496547403943,-0.25095057235972446,9.554454389696748,-2.1378304812390314,-0.203421771526337,1.13181400299072,-0.301690816879273,151.938164550781,1632193897221169920,2021/09/21 11:11:37.035,2.0
298,-1.002916574545475,1.8634393700149303,0.38067802509887994,-0.25031071305297026,9.555669236350042,-2.1333153867763373,-0.203421771526337,1.13181400299072,-0.414089918136597,151.957999023438,1632193897240999936,2021/09/21 11:11:37.055,2.0
299,-1.0205430420358896,1.4426904786380017,0.5451438882222932,-0.24995340498990976,9.556954775433262,-2.128385808103691,-0.20586521923542,1.13181400299072,-0.414089918136597,151.977833496094,1632193897260829952,2021/09/21 11:11:37.074,2.0
300,-0.9789143271593855,0.9178794886231655,0.6795589353220294,-0.24985345044084598,9.558301812212141,-2.1230887796667917,-0.254734396934509,1.19167876243591,-0.414089918136597,151.99766796875,1632193897280669952,2021/09/21 11:11:37.094,2.0
301,-0.9036378786299303,0.36403620543866677,0.7760644326074356,-0.24998386009100543,9.559700891629191,-2.1174728672748775,-0.254734396934509,1.19167876243591,-0.393320530653,152.017502197266,1632193897300499968,2021/09/21 11:11:37.114,2.0
302,-0.8087797258985134,-0.1532313879362029,0.8318124532387015,-0.2503160110199453,9.56114237790895,-2.111587843400111,-0.312766551971435,1.19167876243591,-0.393320530653,152.037336914063,1632193897320339968,2021/09/21 11:11:37.134,2.0
303,-0.6965765557653616,-0.5851657058410431,0.8466842276503955,-0.2508197843282467,9.562616534648546,-2.1054843513228425,-0.31521001458168,1.20328521728516,-0.387211859226227,152.057171142578,1632193897340169984,2021/09/21 11:11:37.154,2.0
304,-0.56147499777702,-0.9005501548253184,0.8236967423480815,-0.25146370606434193,9.5641135977843,-2.0992135886817493,-0.350640177726746,1.19167876243591,-0.373161971569061,152.077005615234,1632193897360009984,2021/09/21 11:11:37.174,2.0
305,-0.39647114733647587,-1.0866038714113326,0.7706019722168275,-0.2522151058735933,9.565623849323464,-2.0928269741488807,-0.507021546363831,1.1715202331543,-0.346894800662994,152.096840332031,1632193897379840000,2021/09/21 11:11:37.193,2.0
306,-0.20063758285388766,-1.1513179673244254,0.7006715496599978,-0.25304027969826426,9.567137706660564,-2.086375726932715,-0.507021546363831,1.1715202331543,-0.325514525175095,152.116674560547,1632193897399670016,2021/09/21 11:11:37.213,2.0
307,0.01629053589518515,-1.1231222578489457,0.6312136300442832,-0.253904629565259,9.568645831619545,-2.0799103331386926,-0.507021546363831,1.1104336977005,-0.325514525175095,152.136509033203,1632193897419510016,2021/09/21 11:11:37.233,2.0
308,0.23553147668248894,-1.0441803313027698,0.5794649577328435,-0.2547727765879189,9.570139246852102,-2.0734799502759635,-0.453265428543091,1.03651905059814,-0.325514525175095,152.156343261719,1632193897439340032,2021/09/21 11:11:37.253,2.0
309,0.4346454270656277,-0.9584674269223951,0.5574880902815602,-0.2556086796903403,9.571609441785105,-2.067131833735042,-0.373853027820587,1.03651905059814,-0.398207426071167,152.176177978516,1632193897459180032,2021/09/21 11:11:37.273,2.0
310,0.5918043615782735,-0.900312862102781,0.5691649824319399,-0.2563758068039931,9.57304845791659,-2.0609108385611674,-0.341477185487747,1.03651905059814,-0.470900326967239,152.196012451172,1632193897479010048,2021/09/21 11:11:37.293,2.0
311,0.687778758705019,-0.8887252173455513,0.6112085207749318,-0.25703738523132774,9.574448953562444,-2.0548589997794537,-0.307268768548966,1.14586389064789,-0.517936944961548,152.215846679688,1632193897498850048,2021/09/21 11:11:37.312,2.0
312,0.7082378788927539,-0.9274627619219238,0.6772762550864256,-0.25755672290456855,9.575804252045929,-2.0490151748128187,-0.224802032113075,1.14586389064789,-0.524656414985657,152.235681396484,1632193897518680064,2021/09/21 11:11:37.332,2.0
313,0.6481318158733865,-1.0070332333179859,0.7619737982298936,-0.25789757373868033,9.5771083738616,-2.043414753391837,-0.110570333898068,1.14586389064789,-0.525878190994263,152.255515625,1632193897538520064,2021/09/21 11:11:37.352,2.0
314,0.5157875094431195,-1.1065333158099382,0.8616294205583809,-0.2580245263082949,9.57835604927034,-2.0380894655098607,-0.028103593736887,1.09638381004333,-0.535041153430939,152.275350097656,1632193897558350080,2021/09/21 11:11:37.372,2.0
315,0.33214912219167914,-1.196126238686475,0.9722213389692729,-0.2579034091778704,9.579542709478565,-2.033067304707417,-0.00427986960858107,1.03712999820709,-0.525878190994263,152.295184814453,1632193897578180096,2021/09/21 11:11:37.392,2.0
316,0.1244117053766775,-1.2411649659904704,1.0882229568832917,-0.2575017161682032,9.580664459837985,-2.0283725446811873,0.0232090428471565,1.01269543170929,-0.524656414985657,152.315019042969,1632193897598020096,2021/09/21 11:11:37.412,2.0
317,-0.08165198912465273,-1.2080399573334832,1.2043813370044618,-0.2567890557932022,9.581718039863901,-2.024025814766236,0.10201058536768,0.918622195720673,-0.506941378116608,152.334853515625,1632193897617850112,2021/09/21 11:11:37.431,2.0
318,-0.266415841728868,-1.0715547972572064,1.3172879943527838,-0.25573761699432435,9.58270077083466,-2.0200442295972527,0.175925225019455,0.77262556552887,-0.453185260295868,152.354687988281,1632193897637690112,2021/09/21 11:11:37.451,2.0
319,-0.41731343265503656,-0.8226956848566106,1.4228794871576844,-0.254322626241316,9.583610489345093,-2.016441592065233,0.226626992225647,0.680384993553162,-0.367053329944611,152.374522460937,1632193897657520128,2021/09/21 11:11:37.471,2.0
320,-0.527991457559181,-0.4734652522632413,1.5115076562041687,-0.252522762984209,9.584445468603247,-2.0132286731059543,0.226626992225647,0.566764116287231,-0.275423616170883,152.394356689453,1632193897677360128,2021/09/21 11:11:37.491,2.0
321,-0.5979376825063427,-0.05534133319022795,1.5654041022112475,-0.250320505577207,9.585204334254378,-2.0104135415604265,0.226626992225647,0.420156568288803,-0.179517865180969,152.414191162109,1632193897697189888,2021/09/21 11:11:37.511,2.0
322,-0.6326547662412515,0.3883700316361678,1.560398449313083,-0.24770239124146506,9.585885984306033,-2.0080018991133235,0.186920791864395,0.283933728933334,-0.0628427118062973,152.434025878906,1632193897717029888,2021/09/21 11:11:37.531,2.0
323,-0.6432884486684408,0.8127468600319664,1.4704681688855927,-0.24465917737895515,9.586489523782559,-2.0059973716154404,0.119114801287651,0.183751910924911,0.0727692618966103,152.453860107422,1632193897736859904,2021/09/21 11:11:37.550,2.0
324,-0.6448214829679865,1.1811317805656716,1.273467657263651,-0.24118588398287763,9.5870142232317,-2.0044017224503743,0.0977345332503319,0.103117786347866,0.221820250153542,152.473694824219,1632193897756699904,2021/09/21 11:11:37.570,2.0
325,-0.6521660334050431,1.4730154454553805,0.9575175599853967,-0.23728169183791809,9.587459504836835,-2.003214983827558,0.0800194591283798,-0.0593722313642502,0.384921133518219,152.493529052734,1632193897776529920,2021/09/21 11:11:37.590,2.0
326,-0.6747443074284103,1.686788432237018,0.5276485284781871,-0.23294967995876462,9.58782495387327,-2.0024355241183263,0.0470327660441399,-0.220640525221825,0.533361256122589,152.513363525391,1632193897796359936,2021/09/21 11:11:37.610,2.0
327,-0.7116085845296379,1.8344257539064568,0.011786620073559649,-0.22819640632069713,9.58811035029342,-2.002060067657036,0.0164895318448544,-0.298831224441528,0.61521714925766,152.533197998047,1632193897816199936,2021/09/21 11:11:37.630,2.0
328,-0.7487497277756276,1.9303197582462401,-0.5360393754887341,-0.22303136324095993,9.58831571380452,-2.0020836746523276,-0.0311579182744026,-0.595711410045624,0.61521714925766,152.553032470703,1632193897836029952,2021/09/21 11:11:37.650,2.0
329,-0.7602223472207134,1.9804636325191143,-1.0414745368981113,-0.21746637002246322,9.588441354330827,-2.002499687963505,-0.102629095315933,-0.808292388916016,0.61521714925766,152.572866943359,1632193897855869952,2021/09/21 11:11:37.669,2.0
330,-0.7155694700835544,1.9771631280158093,-1.4294818507634695,-0.21151499323273965,9.588487920824672,-2.003299650078374,-0.102629095315933,-0.808292388916016,0.506483197212219,152.592701171875,1632193897875699968,2021/09/21 11:11:37.689,2.0
331,-0.5936822392314157,1.9025735400550134,-1.6488828789190875,-0.20519208791830712,9.588456444741675,-2.0044731898457804,-0.102629095315933,-0.808292388916016,0.325667262077331,152.612535888672,1632193897895539968,2021/09/21 11:11:37.709,2.0
332,-0.39821182232464497,1.7400240085297813,-1.6835907051547234,-0.19851349255857123,9.588348375062177,-2.006007900532998,-0.00305814016610384,0.120221994817257,0.290847957134247,152.632370361328,1632193897915369984,2021/09/21 11:11:37.729,2.0
333,-0.16376199312197287,1.4828965482222478,-1.5456372244940884,-0.19149579536175163,9.588165598915166,-2.007889271257124,0.127056047320366,0.120221994817257,0.276187211275101,152.652204589844,1632193897935209984,2021/09/21 11:11:37.749,2.0
334,0.058298849302766936,1.1313276606643492,-1.2646285140319558,-0.18415604140874076,9.58791043998691,-2.01010074438791,0.273663580417633,0.120221994817257,0.255417823791504,152.672039306641,1632193897955040000,2021/09/21 11:11:37.769,2.0
335,0.2294778251562955,0.6837185498722128,-0.8858470342092071,-0.17651134963349505,9.58758562859384,-2.012623933344242,0.273663580417633,0.165425971150398,0.221820250153542,152.691873535156,1632193897974870016,2021/09/21 11:11:37.788,2.0
336,0.3456385129199026,0.13906962741300716,-0.47049962898389497,-0.16857853289718472,9.587194244481509,-2.0154389732119693,0.273663580417633,0.108615562319756,0.180281445384026,152.711708007812,1632193897994710016,2021/09/21 11:11:37.808,2.0
337,0.43130442018328474,-0.4881754625464206,-0.08404840526714638,-0.16037381577794094,9.5867396456521,-2.0185249182469964,0.221740081906319,0.0731854140758514,0.124692767858505,152.731542480469,1632193898014540032,2021/09/21 11:11:37.828,2.0
338,0.5136265435621991,-1.1570042400183653,0.22657887032941781,-0.1519126605207312,9.58622540488634,-2.021860076391195,0.125223457813263,0.0731854140758514,0.0886517465114594,152.751376953125,1632193898034380032,2021/09/21 11:11:37.848,2.0
339,0.6021484716267846,-1.8054356244482066,0.4477026810576645,-0.14320966099062712,9.585655268437305,-2.0254222178063372,0.125223457813263,0.0731854140758514,0.0495564006268978,152.771211425781,1632193898054210048,2021/09/21 11:11:37.868,2.0
340,0.6898847908195632,-2.3676746990512174,0.5929762464074048,-0.13427847234158458,9.58503313245361,-2.029188688314387,0.125223457813263,0.0609681159257889,0.0495564006268978,152.791045898437,1632193898074050048,2021/09/21 11:11:37.888,2.0
341,0.7667933907397193,-2.789299128702245,0.6863732660946941,-0.12513176099570794,9.58436302202933,-2.0331365065818225,0.125223457813263,0.0371443927288055,0.0495564006268978,152.810880371094,1632193898093880064,2021/09/21 11:11:37.907,2.0
342,0.8303253518372912,-3.033862325730788,0.7490294030763142,-0.11578116101109287,9.583649063925874,-2.0372424897603016,0.125223457813263,0.0316466093063354,0.077045314013958,152.830714599609,1632193898113710080,2021/09/21 11:11:37.927,2.0
343,0.8871923728459461,-3.082856134821692,0.7943722366041421,-0.10623722063363013,9.582895454653924,-2.041483398781755,0.131332099437714,0.0292031522840261,0.10025817155838,152.850549316406,1632193898133550080,2021/09/21 11:11:37.947,2.0
344,0.9482861581722489,-2.9332935964402727,0.828354965344048,-0.09650933012278333,9.582106429007027,-2.0458360781741427,0.131332099437714,-0.0269964020699263,0.10025817155838,152.870383789062,1632193898153380096,2021/09/21 11:11:37.967,2.0
345,1.0217241627964146,-2.595383879229304,0.8510628624228136,-0.08660563847132285,9.581286230431884,-2.0502775837551703,0.149047181010246,-0.139395520091057,0.10025817155838,152.890218017578,1632193898173220096,2021/09/21 11:11:37.987,2.0
346,1.1085359910256904,-2.090662735593394,0.8579100413333417,-0.07653298346649923,9.5804390796903,-2.0547853155864497,0.19547289609909,-0.255459815263748,0.0471129417419434,152.910052490234,1632193898193050112,2021/09/21 11:11:38.007,2.0
347,1.2016551259868946,-1.4499879217055405,0.8402677224891608,-0.06629686878886049,9.57956913707995,-2.0593371794607997,0.19547289609909,-0.313491970300674,-0.0115300714969635,152.929886962891,1632193898212890112,2021/09/21 11:11:38.026,2.0
348,1.2863250610383075,-0.7108072237444977,0.7864075366712713,-0.05590151281164613,9.578680457102863,-2.0639117829329905,0.19547289609909,-0.315324544906616,-0.0115300714969635,152.949721435547,1632193898232719872,2021/09/21 11:11:38.046,2.0
349,1.3413531329496604,0.08595729378139433,0.6838168062356191,-0.04534996270451616,9.577776940570704,-2.068488643008748,0.140495076775551,-0.347700387239456,-0.0115300714969635,152.969556152344,1632193898252559872,2021/09/21 11:11:38.066,2.0
350,1.3416005503536228,0.8976418618362767,0.5230327528160559,-0.03464423743458872,9.576862294088766,-2.0730483605274426,0.0378697961568832,-0.347700387239456,-0.0115300714969635,152.989390380859,1632193898272389888,2021/09/21 11:11:38.086,2.0
351,1.260964255579114,1.6792885650285976,0.30210061569700647,-0.0237854624326471,9.575940008617218,-2.0775727106538624,-0.105683416128159,-0.347700387239456,-0.0115300714969635,153.009224853516,1632193898292229888,2021/09/21 11:11:38.106,2.0
352,1.0753369139966575,2.3831384141726053,0.02995262158135002,-0.012773982991489312,9.575013366354103,-2.0820446111816024,-0.105683416128159,-0.242631658911705,0.000687222462147474,153.029059082031,1632193898312059904,2021/09/21 11:11:38.126,2.0
353,0.7667631537780921,2.9606392415320553,-0.27305090358437445,-0.0016094652669308082,9.574085475863697,-2.0864479695746314,-0.105683416128159,-0.216975331306457,-0.0145843960344791,153.048893798828,1632193898331889920,2021/09/21 11:11:38.145,2.0
354,0.32974824968215344,3.3664552868463713,-0.5781483857382307,0.00970900565570788,9.573159322222528,-2.090767464641678,-0.0910226628184318,-0.180323451757431,-0.0225256346166134,153.068728027344,1632193898351729920,2021/09/21 11:11:38.165,2.0
355,-0.22190728929393724,3.564289574052967,-0.8536282793686043,0.02118283032742735,9.57223781375014,-2.094988341685236,-0.0910226628184318,-0.166884437203407,-0.0292451493442059,153.088562744141,1632193898371559936,2021/09/21 11:11:38.185,2.0
356,-0.8516440363808611,3.5353784445681784,-1.0697088355913122,0.03281379229492033,9.571323815347977,-2.0990962653703655,-0.0720858573913574,-0.124734759330749,-0.0701730847358704,153.108397216797,1632193898391399936,2021/09/21 11:11:38.205,2.0
357,-1.5028185931534637,3.286419261256306,-1.2017793507448695,0.04460391806569602,9.570420172610271,-2.103077213499317,-0.0360448360443115,-0.124734759330749,-0.128816097974777,153.128231445313,1632193898411229952,2021/09/21 11:11:38.225,2.0
358,-2.1063279113835836,2.8520149221335513,-1.234067042332686,0.056555264587802474,9.569529735511916,-2.1069173729464463,-0.0360448360443115,-0.116793520748615,-0.160581067204475,153.148065917969,1632193898431069952,2021/09/21 11:11:38.245,2.0
359,-2.5909968495668187,2.289265984568168,-1.1633307048230759,0.06866959883976993,9.568655376160105,-2.1106030599667847,0.233957380056381,-0.0404354259371758,-0.160581067204475,153.167900390625,1632193898450899968,2021/09/21 11:11:38.265,2.0
360,-2.8964403856915566,1.661785211012308,-0.9994443556750874,0.08094796092084482,9.567799976189793,-2.1141207686546983,0.233957380056381,0.00171423982828855,-0.160581067204475,153.187734863281,1632193898470739968,2021/09/21 11:11:38.284,2.0
361,-2.988102877669178,1.0171094287570772,-0.7624473259064704,0.09339020411207487,9.566966366422818,-2.117457421697843,0.233957380056381,0.00171423982828855,0.123471036553383,153.207569580078,1632193898490569984,2021/09/21 11:11:38.304,2.0
362,-2.8714966544496585,0.3732502073034586,-0.4780386573747614,0.10599468130355595,9.56615723703839,-2.1206007480223525,0.119725666940212,0.00171423982828855,0.123471036553383,153.227403808594,1632193898510400000,2021/09/21 11:11:38.324,2.0
363,-2.5967669002892912,-0.27434203278638425,-0.17223206874706742,0.11875814730338494,9.565375061996921,-2.123539605046821,0.0531414113938809,-0.461321234703064,0.127747088670731,153.24723828125,1632193898530240000,2021/09/21 11:11:38.344,2.0
364,-2.243119294530511,-0.9308679763204669,0.13411715404607313,0.13167577063108185,9.56462206850405,-2.126264114831703,0.0531414113938809,-0.579218089580536,0.204716041684151,153.267072509766,1632193898550070016,2021/09/21 11:11:38.364,2.0
365,-1.887626064832658,-1.5819988545139314,0.42789190439793195,0.14474111606068799,9.563900246096747,-2.128765632988887,0.0531414113938809,-0.600598335266113,0.204716041684151,153.286907226563,1632193898569910016,2021/09/21 11:11:38.384,2.0
366,-1.5797033285187776,-2.189383849777083,0.7015230902605983,0.1579460676314033,9.563211362684966,-2.131036685437203,0.0531414113938809,-0.637250244617462,0.204716041684151,153.306741455078,1632193898589740032,2021/09/21 11:11:38.403,2.0
367,-1.335901437910597,-2.701903045831096,0.9486104587037473,0.17128074750879266,9.562556958178675,-2.133070997367169,0.0531414113938809,-0.637250244617462,0.300010949373245,153.326576171875,1632193898609580032,2021/09/21 11:11:38.423,2.0
368,-1.150508493306914,-3.0721110666672575,1.1618680166658202,0.1847334875311065,9.561938316752626,-2.134863612714646,-0.00733419414609671,-0.648245811462402,0.392862379550934,153.346410644531,1632193898629410048,2021/09/21 11:11:38.443,2.0
369,-1.00948666110315,-3.267759028817138,1.3358556710904805,0.19829087978666712,9.561356444887734,-2.1364109934409883,-0.0867466107010841,-0.741708099842072,0.414242625236511,153.366244873047,1632193898649240064,2021/09/21 11:11:38.463,2.0
370,-0.8993414535611274,-3.2752844792583864,1.4722551555797416,0.21193790245203106,9.5608120767143,-2.1377110092873672,-0.0867466107010841,-0.742929816246033,0.414242625236511,153.386079589844,1632193898669080064,2021/09/21 11:11:38.483,2.0
371,-0.809671227714011,-3.0982114766370996,1.5815457568528428,0.22565809007962861,9.56030570296955,-2.1387628300625363,-0.0867466107010841,-0.742929816246033,0.414242625236511,153.405913818359,1632193898688910080,2021/09/21 11:11:38.503,2.0
372,-0.7319299765050981,-2.753533099378889,1.678001943587538,0.2394337078314174,9.559837606372023,-2.1395667880109825,-0.0531490482389927,-0.742929816246033,0.350712716579437,153.425748291016,1632193898708750080,2021/09/21 11:11:38.522,2.0
373,-0.6571453061585498,-2.266929467298224,1.7719316673549004,0.2532458983135658,9.55940789120828,-2.1401242600633723,-0.0531490482389927,-0.692228078842163,0.295734882354736,153.445583007813,1632193898728580096,2021/09/21 11:11:38.542,2.0
374,-0.5750477829157182,-1.6678426275323879,1.8643308448439269,0.2670747854497327,9.559016504714883,-2.140437581669821,-0.0531490482389927,-0.633585035800934,0.295734882354736,153.465417236328,1632193898748420096,2021/09/21 11:11:38.562,2.0
375,-0.4758887581798346,-0.9861863062545154,1.9457241409883506,0.28089954145874224,9.558663254280573,-2.140509976938572,-0.0568142347037792,-0.633585035800934,0.295734882354736,153.485251708984,1632193898768250112,2021/09/21 11:11:38.582,2.0
376,-0.35408764673075965,-0.2521431538263687,1.9985623451244874,0.29469844883967156,9.558347827088836,-2.140345476610453,-0.122176751494408,-0.633585035800934,0.382477670907974,153.505086181641,1632193898788090112,2021/09/21 11:11:38.602,2.0
377,-0.21209041579718624,0.5006622140527504,2.0012383627139934,0.3084490076098569,9.55806981913605,-2.1399487902730723,-0.218082517385483,-0.638471961021423,0.518089652061462,153.524920654297,1632193898807920128,2021/09/21 11:11:38.622,2.0
378,-0.06345882115073292,1.2312409478080297,1.9316513539419762,0.3221281409795469,9.557828779174617,-2.139325099850066,-0.218082517385483,-0.669015228748322,0.664086282253265,153.544755126953,1632193898827760128,2021/09/21 11:11:38.641,2.0
379,0.06621084074198387,1.8920075651623427,1.7697200875043175,0.3357125380077423,9.557624265981765,-2.1384797670778233,-0.218082517385483,-0.747816741466522,0.664086282253265,153.564589599609,1632193898847589888,2021/09/21 11:11:38.661,2.0
380,0.14302418863714744,2.437079256647534,1.4993292400515823,0.3491791314374418,9.557455903534848,-2.1374180102572704,-0.0555925071239471,-0.747816741466522,0.664086282253265,153.584424072266,1632193898867419904,2021/09/21 11:11:38.681,2.0
381,0.1344351323719421,2.8335603507361538,1.1105530834160062,0.36250564627352855,9.557323409863496,-2.1361446611173744,0.16248619556427,-0.747816741466522,0.560239315032959,153.604258300781,1632193898887259904,2021/09/21 11:11:38.701,2.0
382,0.021880494348683603,3.0682584605907985,0.604680417874476,0.3756711174388967,9.557226582340284,-2.1346641014700065,0.24434207379818,-0.807681500911713,0.449061930179596,153.624093017578,1632193898907089920,2021/09/21 11:11:38.721,2.0
383,-0.19078638507840892,3.1475752506487926,0.003704708437816631,0.38865630947738633,9.557165239909063,-2.132980399904416,0.24434207379818,-0.807681500911713,0.42951425909996,153.643927246094,1632193898926929920,2021/09/21 11:11:38.741,2.0
384,-0.4780029360751491,3.094076266425616,-0.6417192781569676,0.40144403827948716,9.557139137320943,-2.1310975858437824,0.24434207379818,-0.807681500911713,0.40813398361206,153.66376171875,1632193898946759936,2021/09/21 11:11:38.760,2.0
385,-0.7982766755997891,2.941420188964392,-1.2552664922389756,0.4140194095726861,9.55714786834092,-2.1290199842189685,0.191196843981743,-1.02820360660553,0.298789203166962,153.683596435547,1632193898966599936,2021/09/21 11:11:38.780,2.0
386,-1.098596467867874,2.723693115322087,-1.7502485674546215,0.42636994318242544,9.557190773199192,-2.1267525588427225,-0.101407364010811,-1.02820360660553,0.151570811867714,153.703430664062,1632193898986429952,2021/09/21 11:11:38.800,2.0
387,-1.3194476736128098,2.459691529498901,-2.0527775577714973,0.43848551853335554,9.557266876127182,-2.124301182498679,-0.104461692273617,-1.02820360660553,0.151570811867714,153.723265380859,1632193899006269952,2021/09/21 11:11:38.820,2.0
388,-1.4081979779001204,2.1450410101005852,-2.1259100958386217,0.4503581162536989,9.557374882654948,-2.121672721080045,-0.104461692273617,-0.888315618038177,0.151570811867714,153.743099609375,1632193899026099968,2021/09/21 11:11:38.840,2.0
389,-1.3419993472947418,1.7607733648432649,-1.9800003342936277,0.4619814421071232,9.557513232212628,-2.1188749217450544,-0.104461692273617,-0.0917480662465096,0.153403401374817,153.762934082031,1632193899045929984,2021/09/21 11:11:38.860,2.0
390,-1.1453743480191554,1.2879752644925933,-1.660443340560408,0.47335062476958795,9.557680157876153,-2.115916245851921,0.0342046059668064,-0.0917480662465096,0.153403401374817,153.782768798828,1632193899065769984,2021/09/21 11:11:38.879,2.0
391,-0.8828870254028706,0.716164168807104,-1.227838262318966,0.4844621545833707,9.557873706993359,-2.1128057916205836,0.0342046059668064,-0.0917480662465096,0.153403401374817,153.802603027344,1632193899085600000,2021/09/21 11:11:38.899,2.0
392,-0.6274378866649084,0.047621313506426254,-0.7479249182617729,0.49531404761421355,9.558091716822185,-2.109553337328433,0.0342046059668064,-0.268287986516953,0.0532215908169746,153.8224375,1632193899105440000,2021/09/21 11:11:38.919,2.0
393,-0.4257601895370213,-0.6971154487057131,-0.2858320263195301,0.5059060401682941,9.55833177210943,-2.10616945110608,0.0164895318448544,-0.277450948953628,0.00496327551081777,153.842271972656,1632193899125270016,2021/09/21 11:11:38.939,2.0
394,-0.283614700387107,-1.4759394133016757,0.10661568110446241,0.5162396373187852,9.55859117834759,-2.1026655812107107,-0.169824212789535,-0.287224769592285,-0.0109192077070475,153.862106445312,1632193899145110016,2021/09/21 11:11:38.959,2.0
395,-0.17769643521867343,-2.229219875607194,0.40468838915047384,0.526318005544136,9.558866971850781,-2.0990540416198353,-0.184484958648682,-0.402067363262177,-0.0237473659217358,153.881940917969,1632193899164940032,2021/09/21 11:11:38.979,2.0
396,-0.07895209661175429,-2.89084699235523,0.612644879222079,0.5361457931756058,9.559155966161548,-2.0953478661552705,-0.184484958648682,-0.402067363262177,-0.0237473659217358,153.901775390625,1632193899184770048,2021/09/21 11:11:38.998,2.0
397,0.03305966444666284,-3.4014017996161083,0.7529706895757863,0.5457289294488403,9.559454816767737,-2.091560588412795,-0.184484958648682,-0.421615034341812,-0.0109192077070475,153.921609863281,1632193899204610048,2021/09/21 11:11:39.018,2.0
398,0.16789242591730666,-3.717758533139817,0.8526458896216155,0.555074408708251,9.559760083320702,-2.0877060336898934,-0.114235527813435,-0.440551817417145,-0.0109192077070475,153.941444335937,1632193899224440064,2021/09/21 11:11:39.038,2.0
399,0.3264162574952889,-3.8166121090645238,0.9337967888673148,0.5641900670200619,9.560068277045694,-2.0837981754680426,-0.063533753156662,-0.440551817417145,-0.00786488316953182,153.961278808594,1632193899244280064,2021/09/21 11:11:39.058,2.0
400,0.5034571987581009,-3.693490811101404,1.0095511844015752,0.5730843764870575,9.560375889567528,-2.079851067545164,-0.0537599138915539,-0.572498559951782,0.0746018588542938,153.981113037109,1632193899264110080,2021/09/21 11:11:39.078,2.0
401,0.6903992821152599,-3.3594407344733463,1.0828591307113302,0.581766285150402,9.560679405226765,-2.075878835893336,-0.0476512648165226,-0.572498559951782,0.0746018588542938,154.000947753906,1632193899283950080,2021/09/21 11:11:39.098,2.0
402,0.8772623054444836,-2.836612142211273,1.1470434069967417,0.5902451095001634,9.560975304134912,-2.0718956965367066,-0.0287144593894482,-0.572498559951782,0.0746018588542938,154.020782226562,1632193899303780096,2021/09/21 11:11:39.117,2.0
403,1.0537113422784468,-2.1544204100631097,1.188898405667854,0.5985304577826445,9.561260063234029,-2.067915973632185,0.0274850949645042,-0.502860009670258,0.0483346730470657,154.040616699219,1632193899323620096,2021/09/21 11:11:39.137,2.0
404,1.2092124787541978,-1.3489384830869964,1.1938937536037912,0.6066321499949409,9.561530155419382,-2.0639541279103244,0.0378697961568832,-0.441773563623428,0.0483346730470657,154.060451171875,1632193899343450112,2021/09/21 11:11:39.157,2.0
405,1.332386023414985,-0.4666048693059878,1.1501158065012604,0.6145601204738187,9.561782041925655,-2.0600248214804107,0.0781868621706963,-0.324487537145615,0.0483346730470657,154.080285400391,1632193899363290112,2021/09/21 11:11:39.177,2.0
406,1.4087322719025939,0.43219567553857435,1.0491698420225932,0.6223243289679259,9.562012157209466,-2.0561430147319837,0.0800194591283798,-0.292111694812775,0.0483346730470657,154.100120117187,1632193899383119872,2021/09/21 11:11:39.197,2.0
407,1.417951533964708,1.2773797981455197,0.8856818136499413,0.6299347197157175,9.56221689043174,-2.0523240649908527,0.102621451020241,-0.271953165531158,0.0483346730470657,154.119954589844,1632193899402949888,2021/09/21 11:11:39.217,2.0
408,1.335797289099441,2.003719314425757,0.6575438587638259,0.6374012206058909,9.56239256491854,-2.048583822689757,0.102621451020241,-0.271953165531158,-0.0781143233180046,154.139788818359,1632193899422789888,2021/09/21 11:11:39.236,2.0
409,1.142772638305299,2.568495988718199,0.36765783375362326,0.6447337083808992,9.562535413786748,-2.0449387541821116,0.102621451020241,-0.278061807155609,-0.168522298336029,154.159623535156,1632193899442619904,2021/09/21 11:11:39.256,2.0
410,0.8333207715392736,2.959692462272458,0.026059613772615453,0.6519418640817718,9.562641556756141,-2.0414060897660113,0.00366137130185962,-0.292111694812775,-0.168522298336029,154.179457763672,1632193899462459904,2021/09/21 11:11:39.276,2.0
411,0.41749504586207997,3.188320093081188,-0.3484482471424398,0.6590349111324368,9.562706994753452,-2.038003923828312,-0.273671209812164,-0.371524125337601,-0.168522298336029,154.199292236328,1632193899482289920,2021/09/21 11:11:39.296,2.0
412,-0.08304090641093445,3.2740168983787035,-0.7279382008359573,0.6660212895796902,9.562727641874524,-2.034751162916885,-0.439215540885925,-0.437497496604919,-0.103770643472671,154.219126953125,1632193899502129920,2021/09/21 11:11:39.316,2.0
413,-0.6364009549082624,3.2385909301459965,-1.0774045828102892,0.6729083224299179,9.562699401516669,-2.03166727112824,-0.455708891153336,-0.437497496604919,-0.0738382712006569,154.238961181641,1632193899521959936,2021/09/21 11:11:39.336,2.0
414,-1.1976645137874047,3.1063258371464855,-1.3575728405981538,0.6797018991155915,9.56261827394108,-2.028771855100701,-0.51679539680481,-0.437497496604919,-0.0591775178909302,154.258795654297,1632193899541799936,2021/09/21 11:11:39.355,2.0
415,-1.7081012819841237,2.8985862393982154,-1.529461008962915,0.6864061930372668,9.562480476975365,-2.026084158839568,-0.51679539680481,-0.437497496604919,0.0348956473171711,154.278630126953,1632193899561629952,2021/09/21 11:11:39.375,2.0
416,-2.101435848259434,2.6228443518914597,-1.5654728822373924,0.6930234444543436,9.5622825695637,-2.023622503934041,-0.51679539680481,-0.437497496604919,0.124692767858505,154.298464599609,1632193899581469952,2021/09/21 11:11:39.395,2.0
417,-2.31644612567878,2.267531618631418,-1.4622487051202127,0.6995538239005927,9.562021566249877,-2.0214037344405367,-0.191204473376274,-0.407565146684647,0.1986074000597,154.318299316406,1632193899601299968,2021/09/21 11:11:39.415,2.0
418,-2.3126840708519274,1.8085819529819134,-1.2434575661401794,0.7059953589246643,9.561695019424548,-2.019442803796333,0.0531414113938809,-0.407565146684647,0.25419607758522,154.338133544922,1632193899621129984,2021/09/21 11:11:39.435,2.0
419,-2.0873473867167203,1.2249643591674255,-0.9500124455643437,0.7123439176365866,9.561301051273926,-2.0177526181393497,0.0531414113938809,-0.47048419713974,0.25419607758522,154.357968017578,1632193899640969984,2021/09/21 11:11:39.455,2.0
420,-1.6863543067473286,0.5160634359546509,-0.6253499442663192,0.7185932608870454,9.560838343547134,-2.0163440981685854,0.0800194591283798,-0.47048419713974,0.25419607758522,154.377802490234,1632193899660800000,2021/09/21 11:11:39.474,2.0
421,-1.1960960574103872,-0.28714404173071817,-0.303385845431869,0.7247351483978681,9.560306112052666,-2.0152263139353255,0.0800194591283798,-0.47048419713974,0.25419607758522,154.397636962891,1632193899680640000,2021/09/21 11:11:39.494,2.0
422,-0.7146965852723155,-1.1235286683784114,-0.0022738511964272637,0.730759465034567,9.559704084011686,-2.014406596893384,0.0647478476166725,-0.47048419713974,0.25419607758522,154.417471435547,1632193899700470016,2021/09/21 11:11:39.514,2.0
423,-0.3208663050980223,-1.9175858421724885,0.2744097110346802,0.7366543646163883,9.559032476031762,-2.013890640329708,0.0647478476166725,-0.47048419713974,0.317726016044617,154.437305908203,1632193899720310016,2021/09/21 11:11:39.534,2.0
424,-0.056396335159311084,-2.6024559923699657,0.5292604177859572,0.7424064626441238,9.558291963835694,-2.013682626852387,0.0800194591283798,-0.466208130121231,0.317726016044617,154.457140380859,1632193899740140032,2021/09/21 11:11:39.554,2.0
425,0.07534290249837856,-3.136824840876606,0.7610442652247864,0.7480011021110253,9.557483643287924,-2.013785375306079,0.100788854062557,-0.264011919498444,0.317726016044617,154.476974853516,1632193899759970048,2021/09/21 11:11:39.574,2.0
426,0.09893199081912629,-3.5067184421032116,0.9616419622196651,0.7534226837450052,9.556608989663998,-2.0142004678012904,0.0647478476166725,-0.129010811448097,0.292680561542511,154.496809326172,1632193899779810048,2021/09/21 11:11:39.593,2.0
427,0.05259588735774231,-3.714882268478729,1.1235155468692695,0.7586550146236994,9.555669820278727,-2.0149283420847617,0.05253054946661,-0.0978567078709602,0.125303626060486,154.516643798828,1632193899799640064,2021/09/21 11:11:39.613,2.0
428,-0.021801342994655637,-3.7671031375782342,1.248841964588737,0.7636815905255252,9.554668262988159,-2.015968368184062,0.0769651308655739,0.0145423980429769,-0.0237473659217358,154.536478271484,1632193899819480064,2021/09/21 11:11:39.633,2.0
429,-0.08522535568429307,-3.662882505293146,1.3474183709830063,0.7684857277438879,9.553606734961955,-2.017318923360687,0.0690238922834396,0.0145423980429769,-0.0530688725411892,154.556312744141,1632193899839310080,2021/09/21 11:11:39.653,2.0
430,-0.10772688358765134,-3.3941523742250466,1.4257924732995497,0.773050536812226,9.552487933532579,-2.0189774637170164,0.05253054946661,0.00171423982828855,-0.0530688725411892,154.576147216797,1632193899859150080,2021/09/21 11:11:39.673,2.0
431,-0.07232922698250874,-2.9518297409081793,1.4807907808901215,0.7773588146204304,9.551314833884396,-2.020940591793003,0.05253054946661,0.00171423982828855,-0.0530688725411892,154.595981689453,1632193899878980096,2021/09/21 11:11:39.693,2.0
432,0.025059353280314015,-2.336060048557076,1.501525863322418,0.7813929319851508,9.550090688275045,-2.0232041177989144,0.0519196838140488,0.0145423980429769,-0.0322994701564312,154.615815917969,1632193899898820096,2021/09/21 11:11:39.712,2.0
433,0.17776292449204253,-1.566091455840702,1.4745930484977388,0.7851347488631771,9.548819026966955,-2.02576310160229,-0.00489073526114225,0.0261488277465105,0.0519998595118523,154.635650634766,1632193899918650112,2021/09/21 11:11:39.732,2.0
434,0.37025205939031125,-0.6872035684530102,1.3874063525894833,0.788565583698941,9.547503663359024,-2.0286118534781274,-0.0922443941235542,0.00171423982828855,0.193720474839211,154.655485107422,1632193899938480128,2021/09/21 11:11:39.752,2.0
435,0.5785471596783143,0.22981151867459584,1.228265945558675,0.7916662867588451,9.546148704921208,-2.0317438658672202,-0.0922443941235542,-0.00622700154781342,0.257250398397446,154.675319580078,1632193899958320128,2021/09/21 11:11:39.772,2.0
436,0.7702189858773424,1.10130812433105,0.9852604739455714,0.7944174591911715,9.544758568396555,-2.035151663485712,-0.0922443941235542,-0.0398245602846146,0.257250398397446,154.695154052734,1632193899978149888,2021/09/21 11:11:39.792,2.0
437,0.9077438676689119,1.8537951315783134,0.6463061551513232,0.7967997972913761,9.543337990510132,-2.0388266183331414,0.122779987752438,-0.0398245602846146,0.337884545326233,154.71498828125,1632193899997989888,2021/09/21 11:11:39.812,2.0
438,0.9568159978813253,2.447356612626118,0.20250042985557437,0.7987944772781777,9.541892015950918,-2.0427588543837256,0.500294387340546,-0.0398245602846146,0.3855319917202,154.734822998047,1632193900017819904,2021/09/21 11:11:39.831,2.0
439,0.8956164255148423,2.8859905469533125,-0.34203064494179186,0.8003835261811307,9.540425939219114,-2.0469373805501183,0.553439617156982,0.00110337510704994,0.306119590997696,154.754657226563,1632193900037659904,2021/09/21 11:11:39.851,2.0
440,0.7213275514498656,3.2065814372465344,-0.9571236318731915,0.8015502229826305,9.538945186568188,-2.051350487131824,0.553439617156982,0.00110337510704994,0.306119590997696,154.774491943359,1632193900057489920,2021/09/21 11:11:39.871,2.0
441,0.4555042657625067,3.450998729508893,-1.580090459106493,0.8022795793865591,9.53745514782016,-2.0559863124586104,0.553439617156982,0.00110337510704994,0.317726016044617,154.794326416016,1632193900077329920,2021/09/21 11:11:39.891,2.0
442,0.14689998926028325,3.6343409285343524,-2.1209388894456778,0.8025588420937418,9.535960991958708,-2.060833435401267,0.003050506580621,-0.260957598686218,0.306119590997696,154.814160644531,1632193900097159936,2021/09/21 11:11:39.911,2.0
443,-0.1370027472157992,3.725041102238732,-2.4835432376652027,0.8023779054363652,9.534467527461066,-2.0658812849733135,-0.0971313118934631,-0.541955351829529,0.267635107040405,154.833995361328,1632193900116999936,2021/09/21 11:11:39.931,2.0
444,-0.33304344691583215,3.654060236698536,-2.602668737362981,0.8017295694442615,9.532979179801341,-2.071120102342567,-0.0971313118934631,-0.541955351829529,0.183335781097412,154.853829589844,1632193900136829952,2021/09/21 11:11:39.950,2.0
445,-0.40966372390789224,3.3550008125602435,-2.4724993485289404,0.8006095953901078,9.531500096663667,-2.0765404474516793,-0.0971313118934631,-0.541955351829529,-0.102548912167549,154.8736640625,1632193900156659968,2021/09/21 11:11:39.970,2.0
446,-0.381965379082697,2.8062050853812828,-2.13894820709739,0.7990165280364553,9.530034286719507,-2.082132688867882,0.548552691936493,0.491016864776611,-0.128205239772797,154.893498779297,1632193900176499968,2021/09/21 11:11:39.990,2.0
447,-0.3032771126908992,2.039558440135176,-1.668189727496411,0.7969514170611848,9.528585677819308,-2.0878869167643375,0.548552691936493,0.491016864776611,-0.128205239772797,154.913333007812,1632193900196329984,2021/09/21 11:11:40.010,2.0
448,-0.23692145172160095,1.11548598804797,-1.1261997147373832,0.7944177049811828,9.52715806424761,-2.093793262231561,0.548552691936493,0.491016864776611,-0.128205239772797,154.933167724609,1632193900216169984,2021/09/21 11:11:40.030,2.0
449,-0.22594930808062483,0.09702579849988054,-0.5773162869155122,0.7914213830236991,9.525754986789064,-2.099842356421257,0.488077104091644,0.448867201805115,-0.128205239772797,154.953001953125,1632193900236000000,2021/09/21 11:11:40.050,2.0
450,-0.27726981104995274,-0.9543639593727087,-0.08517160739264908,0.7879712352932335,9.52437959870351,-2.1060257843557335,0.285880863666534,0.448867201805115,-0.128205239772797,154.972836425781,1632193900255840000,2021/09/21 11:11:40.069,2.0
451,-0.36474776177251084,-1.970180252309906,0.2945344094170463,0.7840789523948878,9.52303455894245,-2.112336479511045,-0.0274927280843258,0.448867201805115,-0.166689708828926,154.992671142578,1632193900275670016,2021/09/21 11:11:40.089,2.0
452,-0.4452420759387546,-2.872241462517033,0.5282433793507281,0.7797590822070748,9.521721988412418,-2.1187689385794313,-0.174711123108864,0.145878300070763,-0.166689708828926,155.012505371094,1632193900295500032,2021/09/21 11:11:40.109,2.0
453,-0.47734561640722273,-3.5824743555193135,0.6185743524580022,0.7750289305657582,9.520443503547805,-2.125319145380537,-0.208308681845665,0.145878300070763,-0.166689708828926,155.032340087891,1632193900315340032,2021/09/21 11:11:40.129,2.0
454,-0.4350430446087054,-4.039235037139218,0.6052143513932342,0.7699085006998821,9.519200303789647,-2.1319842519401724,-0.246182307600975,0.145878300070763,-0.0854447036981583,155.052174316406,1632193900335170048,2021/09/21 11:11:40.149,2.0
455,-0.3111045373401851,-4.210754851990927,0.545853801849336,0.7644204650445705,9.51799327698851,-2.138762161888368,-0.246182307600975,-0.227360039949417,-0.0677296295762062,155.072008789062,1632193900355010048,2021/09/21 11:11:40.169,2.0
456,-0.11014384865798656,-4.099232955072077,0.4901265215639203,0.758590124960671,9.51682310325046,-2.145651117018944,-0.246182307600975,-0.352587312459946,-0.0677296295762062,155.091843505859,1632193900374840064,2021/09/21 11:11:40.188,2.0
457,0.15969696105417003,-3.7349657106990057,0.4649629680001287,0.7524453368202277,9.515690346430905,-2.1526493467203425,-0.10079649835825,-0.419782429933548,-0.0677296295762062,155.111677734375,1632193900394680064,2021/09/21 11:11:40.208,2.0
458,0.4884482687928823,-3.164623650450932,0.47429262180353826,0.7460164008509985,9.514595521663404,-2.1597548371632165,0.0250416360795498,-0.441162705421448,-0.133092150092125,155.131512451172,1632193900414510080,2021/09/21 11:11:40.228,2.0
459,0.8614684714298242,-2.440015441172231,0.5059491964506716,0.73933590050672,9.513539135546274,-2.166965244188035,0.0250416360795498,-0.472316801548004,-0.215558886528015,155.151346679687,1632193900434350080,2021/09/21 11:11:40.248,2.0
460,1.2569578780259398,-1.6122673163281394,0.5404347859791715,0.7324384714709996,9.512521707677028,-2.1742779207420067,0.0250416360795498,-0.472316801548004,-0.269925832748413,155.171181152344,1632193900454180096,2021/09/21 11:11:40.268,2.0
461,1.6443011197448822,-0.7313307410352952,0.5575037902306528,0.7253604922722715,9.51154378938243,-2.1816899875371747,-0.0806379616260529,-0.472316801548004,-0.269925832748413,155.191015625,1632193900474020096,2021/09/21 11:11:40.288,2.0
462,1.982981313686874,0.1528821178471424,0.5385051733335192,0.7181397216691977,9.510605996044793,-2.1891983571519744,-0.0806379616260529,-0.484534084796906,-0.273591041564941,155.210850097656,1632193900493850112,2021/09/21 11:11:40.307,2.0
463,2.224434984022864,0.9913580220361145,0.46752973799157627,0.7108149327028722,9.509709059668213,-2.196799656925572,-0.0806379616260529,-0.377021908760071,-0.286419183015823,155.230684570312,1632193900513679872,2021/09/21 11:11:40.327,2.0
464,2.3186420139749186,1.7397989982221944,0.3349508782893911,0.7034255702728585,9.508853893523721,-2.2044900744538345,-0.0500947237014771,-0.359306812286377,-0.3505599796772,155.250519042969,1632193900533519872,2021/09/21 11:11:40.347,2.0
465,2.224624809388927,2.3624334528846878,0.14143622822514346,0.6960114020931143,9.508041655759758,-2.212265194997184,-0.028103593736887,-0.359306812286377,-0.473954677581787,155.270353515625,1632193900553349888,2021/09/21 11:11:40.367,2.0
466,1.9212535855209336,2.832658750122905,-0.10155111575545246,0.688612116754796,9.507273806071781,-2.220119872532093,-0.0213840827345848,-0.0746438503265381,-0.477008998394013,155.290187988281,1632193900573189888,2021/09/21 11:11:40.387,2.0
467,1.4131338951308798,3.133168282111971,-0.37384555360781885,0.6812668722336794,9.506552155801236,-2.2280481292075582,-0.0195514895021915,-0.00622700154781342,-0.477008998394013,155.310022460937,1632193900593019904,2021/09/21 11:11:40.407,2.0
468,0.7316205705543019,3.2607786099179683,-0.6478644602113314,0.6740138352809484,9.505878910943299,-2.236043070346832,-0.0195514895021915,0.0548594743013382,-0.477008998394013,155.329856933594,1632193900612859904,2021/09/21 11:11:40.426,2.0
469,-0.06472169853630723,3.2321886141920957,-0.8904595422115986,0.6668897259008043,9.50525670646215,-2.2440968164017563,-0.0195514895021915,0.0713528171181679,-0.466013431549072,155.34969140625,1632193900632689920,2021/09/21 11:11:40.446,2.0
470,-0.8927539057330187,3.0798254232095816,-1.069054712014846,0.6599293504763598,9.504688633252636,-2.252200449048824,-0.0195514895021915,0.0548594743013382,-0.412257313728333,155.369525878906,1632193900652529920,2021/09/21 11:11:40.466,2.0
471,-1.6559766971175263,2.83626667839895,-1.1598916875386833,0.6531651278434695,9.504178260679733,-2.2603439578915663,-0.0195514895021915,0.0524160116910935,-0.270536720752716,155.389360107422,1632193900672359936,2021/09/21 11:11:40.486,2.0
472,-2.261380945627483,2.517846493462591,-1.1525016164385071,0.6466266544231932,9.503729652413153,-2.268516193804406,0.112395286560059,0.0524160116910935,-0.128816097974777,155.409194824219,1632193900692199936,2021/09/21 11:11:40.506,2.0
473,-2.6358316527970365,2.119052409157174,-1.0491398100724845,0.6403403577123402,9.503347364428205,-2.276704878785783,0.254726767539978,-0.118626110255718,-0.0127518009394407,155.429029296875,1632193900712029952,2021/09/21 11:11:40.526,2.0
474,-2.741548356278827,1.6218720194987588,-0.8620936584360641,0.6343292440209174,9.503036412753062,-2.284896732845393,0.254726767539978,-0.132065147161484,0.0355065129697323,155.448863769531,1632193900731859968,2021/09/21 11:11:40.545,2.0
475,-2.589856521069689,1.0127785980754391,-0.6105634368109352,0.6286127095611589,9.502802211367154,-2.293077719822024,0.269998401403427,-0.222473114728928,0.0458912141621113,155.468698242187,1632193900751699968,2021/09/21 11:11:40.565,2.0
476,-2.2425685811180753,0.2958893065038446,-0.31678515229298343,0.6232063940211724,9.502650496315926,-2.301233341359981,0.293211251497269,-0.230414360761643,0.0556650497019291,155.488532470703,1632193900771529984,2021/09/21 11:11:40.585,2.0
477,-1.7910848131627533,-0.501882312708814,-0.002124912419062701,0.6181220909195969,9.502587251217763,-2.309348912292678,0.293211251497269,-0.222473114728928,0.116140656173229,155.5083671875,1632193900791369984,2021/09/21 11:11:40.605,2.0
478,-1.323541295325783,-1.3330387400405865,0.3143198614020416,0.6133677449977095,9.502618631766676,-2.3174098271990453,0.293211251497269,-0.132065147161484,0.201661720871925,155.528201416016,1632193900811200000,2021/09/21 11:11:40.625,2.0
479,-0.902119159729742,-2.138209909852146,0.6145192556802138,0.6089475543778944,9.50275087716292,-2.325401867441427,0.293211251497269,-0.126567363739014,0.258472144603729,155.548036132813,1632193900831040000,2021/09/21 11:11:40.645,2.0
480,-0.5591344640383198,-2.8571200195986894,0.8815669140385863,0.6048621772369462,9.502990212292515,-2.3333115321317335,0.0849063768982887,-0.126567363739014,0.294513165950775,155.567870605469,1632193900850870016,2021/09/21 11:11:40.664,2.0
481,-0.30432126227174855,-3.4362590185487165,1.1036352441509965,0.6011090262942417,9.50334276745931,-2.3411262871226906,-0.0470403991639614,-0.126567363739014,0.294513165950775,155.587704833984,1632193900870700032,2021/09/21 11:11:40.684,2.0
482,-0.1332982006317486,-3.832611150945657,1.2790932923941036,0.5976826133324288,9.503814538406086,-2.348834646306021,-0.0726967230439186,-0.128399953246117,0.294513165950775,155.607539550781,1632193900890540032,2021/09/21 11:11:40.704,2.0
483,-0.032826577436451745,-4.016441306429113,1.4169572680473372,0.5945748956644618,9.504411381731247,-2.3564261083500315,-0.0726967230439186,-0.128399953246117,0.266413390636444,155.627373779297,1632193900910370048,2021/09/21 11:11:40.724,2.0
484,0.01590979233088865,-3.9741118185957927,1.530762207759973,0.5917755911423732,9.50513902638473,-2.3638910263032327,-0.0726967230439186,-0.128399953246117,0.210213825106621,155.647208251953,1632193900930210048,2021/09/21 11:11:40.744,2.0
485,0.033814055674670156,-3.708997759205519,1.6308388173135178,0.5892724517470718,9.506003089251196,-2.371220457891107,-0.0720858573913574,0.0365335270762443,0.143018707633018,155.66704296875,1632193900950040064,2021/09/21 11:11:40.764,2.0
486,0.04068936082463444,-3.239372788253555,1.7204825064048452,0.5870514977003722,9.507009090640079,-2.378406013841312,-0.0470403991639614,0.107393838465214,0.0813213661313057,155.686877197266,1632193900969880064,2021/09/21 11:11:40.783,2.0
487,0.05383884531271068,-2.594884686366192,1.7961514990413583,0.5850972139385958,9.50816246712591,-2.385439715428152,-0.0470403991639614,0.107393838465214,0.0813213661313057,155.706711914063,1632193900989710080,2021/09/21 11:11:40.803,2.0
488,0.08759580212527467,-1.8143141054224647,1.8489999814637308,0.5833927094682066,9.50946858083339,-2.3923138659666168,-0.0470403991639614,0.107393838465214,0.0813213661313057,155.726546142578,1632193901009550080,2021/09/21 11:11:40.823,2.0
489,0.1516693989931814,-0.9460849584500939,1.8663544577861746,0.581919847907447,9.51093272712189,-2.3990209281877193,-0.0818596929311752,0.023705368861556,0.112475469708443,155.746380615234,1632193901029380096,2021/09/21 11:11:40.843,2.0
490,0.24795337149194005,-0.05047429843368931,1.8326807913204892,0.5806593762602683,9.512560146059176,-2.4055533818298844,-0.105072550475597,-0.0605939626693726,0.227928906679153,155.766215332031,1632193901049210112,2021/09/21 11:11:40.863,2.0
491,0.3671750453742997,0.8007541190864027,1.7298287637320728,0.5795910988715658,9.514356043883836,-2.411903527046549,-0.105072550475597,-0.177879989147186,0.328721582889557,155.786049560547,1632193901069050112,2021/09/21 11:11:40.883,2.0
492,0.4870200764502994,1.5328926110830052,1.5374296097041564,0.5786941414771734,9.516325622837101,-2.418063228175921,-0.105072550475597,-0.291500836610794,0.328721582889557,155.805884033203,1632193901088880128,2021/09/21 11:11:40.902,2.0
493,0.5737039915047634,2.0865541497294746,1.2344518323138,0.5779473020653202,9.518474104122834,-2.4240236566723614,0.112395286560059,-0.291500836610794,0.328721582889557,155.825718505859,1632193901108720128,2021/09/21 11:11:40.922,2.0
494,0.5886832516259692,2.439293511023606,0.804000042919028,0.577329421176671,9.520806720010055,-2.4297751451554617,0.415995061397552,-0.291500836610794,0.328721582889557,155.845552978516,1632193901128549888,2021/09/21 11:11:40.942,2.0
495,0.49891549806146906,2.617935133276592,0.24538357776802366,0.576819714824104,9.523328652701263,-2.435307257218914,0.581539392471313,-0.291500836610794,0.312228232622147,155.865387695313,1632193901148389888,2021/09/21 11:11:40.962,2.0
496,0.287357305869936,2.690890510846341,-0.40973806463238954,0.5763981004888101,9.526044907721039,-2.440609107707302,0.654232263565063,-0.291500836610794,0.274354606866836,155.885221923828,1632193901168219904,2021/09/21 11:11:40.982,2.0
497,-0.03687968595214602,2.741284051529504,-1.0908963270716616,0.576045566439801,9.528960120730133,-2.445669906936146,0.654232263565063,-0.441162705421448,0.274354606866836,155.905056396484,1632193901188059904,2021/09/21 11:11:41.002,2.0
498,-0.4309057430451221,2.8314591962518194,-1.6993757191286858,0.5757445154048763,9.532078306558873,-2.450479693919116,0.654232263565063,-0.536457538604736,0.00251981662586331,155.924890869141,1632193901207889920,2021/09/21 11:11:41.021,2.0
